timestamp,accX,accY,accZ,anvX,anvY,anvZ
0,-0.2,-9.7,-1.45,-0.09,-0.11,0.03
100,0.11,-10.09,-1.91,0.03,0.02,-0.04
200,-0.1,-10.41,-2.18,-0.1,0.09,0.06
300,0.23,-9.77,-1.5,-0.08,0.03,0.12
400,0.29,-9.55,-1.33,0.02,0.16,-0.08
500,0.36,-9.91,-2.01,0.09,0.14,-0.05
600,-0.19,-10.14,-2.12,0.07,0.16,-0.07
700,0.08,-9.86,-1.67,-0.02,0.09,0.05
800,-0.17,-9.88,-2.63,0.01,0.19,-0.03
900,0.16,-10.02,-1.88,-0.01,0.1,-0.01
1000,0.23,-9.89,-1.77,-0.08,0.16,0.03
1100,-0.41,-10.13,-1.46,0,0.13,0.09
1200,0.02,-9.74,-1.5,0.13,0.2,0
1300,-0.55,-10.24,-1.79,0.06,0.34,-0.26
1400,0.11,-9.66,-1.65,0.15,-0.01,0.1
1500,-0.61,-9.99,-1.43,0.13,0.21,0.07
1600,0.03,-9.51,-1.27,0,-0.03,0.13
1700,-0.35,-9.77,-1.05,-0.1,0.06,0.01
1800,-0.27,-9.89,-1.24,0.04,0,-0.03
1900,-0.26,-9.98,-0.88,-0.01,0,0.02
2000,-0.31,-10.05,-0.98,0.01,-0.03,0.05
2100,-0.24,-9.85,-1.19,0.03,0.05,0.07
2200,-0.09,-9.74,-0.94,0.03,-0.08,0.05
2300,-0.33,-9.89,-0.56,-0.04,-0.01,-0.03
2400,-0.52,-9.99,-0.64,-0.02,-0.1,0.04
2500,-0.09,-9.71,-0.79,0.1,-0.03,-0.07
2600,-0.05,-9.68,-0.79,0.1,0,-0.02
2700,0.05,-9.88,-0.82,0.03,-0.08,-0.11
2800,-0.24,-10.14,-0.42,-0.15,-0.15,-0.07
2900,-0.05,-9.96,-0.45,-0.1,-0.08,0.02
3000,0.18,-9.81,-0.62,-0.05,-0.03,-0.01
3100,0.13,-9.75,-1.01,-0.03,-0.1,0.03
3200,0.18,-9.91,-0.87,-0.03,-0.1,-0.01
3300,0.18,-9.91,-1.38,-0.13,0,-0.05
3400,-0.13,-10.12,-0.95,-0.2,-0.04,-0.02
3500,0.27,-9.99,-1.25,-0.13,0.01,0
3600,-0.11,-10.2,-1.97,-0.04,-0.01,0.04
3700,0.3,-9.93,-1.79,-0.09,-0.13,0.01
3800,0.03,-10.19,-1.35,-0.14,-0.16,0.04
3900,0.37,-9.71,-1.74,-0.04,-0.1,0.02
4000,0.55,-9.62,-2.11,-0.03,-0.17,-0.07
4100,-0.05,-10.11,-1.58,-0.11,-0.14,-0.01
4200,0.13,-9.8,-1.63,-0.04,-0.26,0
4300,0.4,-9.89,-1.43,-0.04,-0.13,0.03
4400,0.43,-10.17,-1.88,0.03,0.04,-0.02
4500,0.35,-9.8,-2.04,-0.08,0.09,-0.1
4600,0.3,-9.84,-2.22,-0.24,0.24,-0.03
4700,0.23,-10.16,-1.75,0.01,-0.13,0.02
4800,0.37,-10.07,-1.92,0.01,-0.1,0.01
4900,0.23,-10.14,-2.14,0,-0.07,0.06
5000,0.52,-9.62,-1.98,-0.08,0.02,0
5100,0.76,-9.43,-2.11,-0.03,-0.09,0.04
5200,0.64,-9.63,-2.08,-0.01,-0.05,-0.17
5300,0.1,-10.08,-1.72,-0.04,-0.02,-0.1
5400,0.34,-10.36,-1.96,-0.04,-0.07,-0.03
5500,0.15,-10.29,-2.29,-0.05,-0.17,-0.03
5600,0.26,-10.06,-1.8,-0.01,-0.17,0.04
5700,0.37,-9.93,-1.78,-0.06,-0.07,0.03
5800,0.22,-9.57,-1.7,-0.05,0.01,0
5900,0.26,-9.88,-2.36,-0.01,0.07,-0.04
6000,0.19,-9.88,-2.08,-0.13,0.06,0.06
6100,0.41,-9.75,-1.81,-0.07,0.09,0.09
6200,0.67,-9.49,-2.26,0.04,-0.11,0
6300,-0.04,-9.75,-2.3,0,-0.15,0.05
6400,0.36,-9.72,-2.4,0.02,-0.16,-0.04
6500,-0.03,-10.18,-2.48,-0.09,0.1,-0.07
6600,0.17,-9.68,-2.36,-0.13,0.13,-0.06
6700,0.05,-9.95,-2.31,-0.07,0.1,0.01
6800,-0.14,-9.95,-2.16,-0.05,0.15,0.05
6900,0.07,-9.8,-2.14,0.03,0.09,-0.01
7000,-0.55,-9.79,-1.81,-0.01,-0.1,0.02
7100,0.27,-10.03,-2.51,-0.03,-0.02,0.06
7200,-0.18,-9.6,-1.62,0.01,-0.1,0.07
7300,0.08,-9.79,-2.17,0,-0.01,0.04
7400,0.01,-9.32,-1.92,-0.06,-0.01,0
7500,0.03,-9.71,-1.98,0.12,-0.11,-0.01
7600,-0.1,-9.9,-2.05,-0.02,0.04,-0.02
7700,0.15,-9.85,-2.1,0.05,0.12,0.02
7800,0.28,-9.75,-2.21,0.03,0.09,0.01
7900,-0.17,-9.99,-1.8,-0.07,0.04,0.03
8000,0.33,-10,-1.99,-0.12,-0.01,0.01
8100,0.63,-9.78,-2.53,-0.03,0.11,-0.06
8200,0.51,-10.17,-2.11,-0.02,0.2,-0.04
8300,-0.09,-9.91,-2.23,-0.05,0.08,0.02
8400,0.2,-9.71,-1.87,-0.01,0.04,-0.06
8500,0.2,-9.72,-2.3,0.03,0.16,0
8600,0.18,-9.63,-2.14,0.06,0.16,-0.02
8700,0.45,-10.09,-2.09,0.04,0.16,0.03
8800,0.14,-9.93,-2.3,-0.03,-0.06,0.07
8900,0.05,-10.15,-2.27,-0.1,0.17,0.05
9000,0.27,-9.79,-1.91,0.06,0.19,0.08
9100,0.19,-9.56,-2.12,0.03,0.2,-0.01
9200,0.1,-10.2,-2.32,0.12,0.15,-0.09
9300,0.06,-9.89,-2.02,-0.04,0.22,-0.03
9400,0.04,-10.06,-1.96,0.02,0.18,0.05
9500,-0.14,-9.96,-1.82,0.05,0.18,0.09
9600,0.02,-9.53,-1.84,0.04,0.2,-0.05
9700,0,-10.01,-2,-0.07,0.13,0
9800,0.15,-9.84,-1.57,0.01,0.08,-0.05
9900,0.03,-9.78,-1.54,-0.02,0.27,0.01
10000,0.52,-9.55,-2.12,0.15,0.17,0.09
10100,-0.01,-9.87,-1.57,0.06,0.18,-0.02
10200,0.23,-9.48,-1.14,0.27,0.15,0.01
10300,0.12,-10.07,-1.39,0.07,-0.06,-0.06
10400,-0.17,-10,-0.98,0.11,0.04,-0.03
10500,0.01,-10.02,-0.82,-0.02,0.15,-0.05
10600,-0.08,-10.5,-1.25,0.02,0.17,-0.03
10700,-0.29,-9.81,-0.91,0.05,0,0.08
10800,0.01,-9.83,-0.91,-0.05,-0.01,0.08
10900,0.03,-9.8,-0.7,-0.06,0.03,0.01
11000,-0.07,-9.93,-0.55,-0.03,-0.03,0.04
11100,-0.06,-10.03,-0.68,0.04,0.08,0.03
11200,-0.06,-9.69,-0.91,-0.02,-0.01,-0.01
11300,-0.17,-9.82,-0.7,-0.02,-0.05,0.03
11400,-0.29,-9.87,-0.57,-0.06,-0.07,-0.03
11500,-0.19,-9.71,-0.46,-0.08,-0.05,0.01
11600,-0.24,-10.04,-0.56,-0.11,-0.04,0.04
11700,-0.38,-9.94,-0.57,-0.13,-0.13,0
11800,0.06,-9.76,-0.77,-0.02,-0.01,-0.01
11900,0,-9.85,-1.26,-0.06,0,-0.02
12000,0,-9.68,-1,-0.07,0.04,-0.03
12100,-0.17,-9.87,-1.07,-0.12,-0.05,-0.02
12200,-0.34,-10.01,-1.29,-0.08,-0.04,-0.06
12300,-0.01,-9.98,-1.11,-0.03,0.07,-0.06
12400,-0.04,-10.21,-1.58,-0.1,0.01,-0.01
12500,0,-10.11,-1.66,-0.07,-0.09,-0.02
12600,0,-9.73,-1.25,-0.13,-0.1,-0.02
12700,-0.27,-10.01,-1.42,-0.09,-0.16,0.02
12800,-0.03,-10.13,-2.08,0.1,-0.05,0.05
12900,-0.02,-9.63,-1.26,-0.11,-0.04,0.04
13000,-0.03,-10.05,-1.79,-0.12,-0.09,-0.06
13100,-0.12,-10.05,-1.65,-0.13,-0.06,-0.02
13200,0.12,-9.96,-1.87,-0.03,-0.12,-0.07
13300,-0.04,-9.94,-1.42,-0.01,-0.2,-0.09
13400,0.15,-10.06,-2.05,-0.06,-0.13,0.02
13500,0.09,-9.99,-2.08,-0.04,-0.14,-0.04
13600,0.1,-9.74,-1.81,-0.14,-0.21,0.03
13700,0.18,-10.05,-2.07,-0.02,-0.26,-0.02
13800,0.17,-9.88,-2.09,-0.03,-0.18,-0.04
13900,0.22,-10.13,-2.06,-0.07,-0.19,0.03
14000,0.11,-9.95,-2.4,-0.01,-0.19,0.05
14100,0.19,-9.92,-2.22,0,-0.16,0.01
14200,0.18,-10.01,-2.02,-0.08,-0.15,0
14300,0.21,-9.94,-2.17,-0.05,-0.14,0.01
14400,0.25,-9.57,-2.08,-0.02,-0.09,0.08
14500,-0.09,-10.07,-2.02,-0.07,-0.28,0.01
14600,0,-9.59,-1.97,-0.02,-0.12,-0.02
14700,-0.15,-10.04,-2.47,-0.02,-0.21,-0.05
14800,-0.1,-9.79,-2.16,-0.05,-0.21,0
14900,-0.28,-10.07,-2.22,0.01,-0.13,0.04
15000,-0.05,-9.87,-2.27,-0.06,-0.03,0.03
15100,-0.01,-9.9,-2.58,-0.03,-0.11,0.05
15200,-0.38,-9.94,-2.37,0.01,-0.02,0.06
15300,-0.16,-9.85,-2.1,-0.06,-0.02,0.01
15400,-0.36,-9.77,-2.66,-0.05,-0.04,0.03
15500,-0.18,-9.85,-2.5,-0.02,0.05,0.03
15600,-0.01,-9.84,-2.42,0.03,-0.05,0.02
15700,-0.21,-9.88,-2.51,-0.08,0.02,0.01
15800,0.02,-9.43,-2.16,0.04,-0.07,0
15900,-0.16,-9.9,-2.63,0.04,0.07,-0.05
16000,-0.1,-9.86,-2.73,-0.09,0,0
16100,-0.29,-10.08,-2.16,-0.02,0.09,-0.03
16200,-0.18,-9.78,-2.16,0,0.1,0.04
16300,-0.11,-9.84,-2.31,-0.04,-0.04,0.02
16400,0.17,-9.86,-2.28,0.03,0.1,0.03
16500,-0.01,-9.65,-2.27,-0.01,0.11,-0.03
16600,-0.25,-10.06,-1.95,0.07,0.14,-0.03
16700,-0.1,-10.03,-2.28,0.01,0.16,-0.01
16800,-0.15,-9.73,-2.09,0.01,0.13,0.07
16900,-0.08,-9.88,-2.08,0.01,0.15,0
17000,0.24,-10.02,-2.45,0.05,0.13,0
17100,-0.07,-10.05,-1.76,0.01,0.08,0.02
17200,-0.41,-9.82,-1.97,-0.05,0.19,0.04
17300,-0.01,-9.96,-2.07,0.05,0.19,0.03
17400,0.16,-9.81,-2.51,-0.07,0.04,-0.01
17500,0.29,-9.79,-1.7,0.02,0.19,-0.01
17600,0.16,-9.95,-2.04,-0.03,0.21,-0.07
17700,-0.01,-10.17,-1.59,0.05,0.11,0
17800,-0.14,-10.24,-1.76,-0.03,0.12,0.09
17900,0.14,-9.92,-1.67,0.08,0.34,0
18000,0.1,-10.01,-2.15,0,0.32,0.04
18100,0.31,-9.76,-2.01,0.05,0.25,0.01
18200,0.14,-9.42,-1.78,0.05,0.09,-0.04
18300,0.05,-9.94,-1.69,0.06,0.19,-0.07
18400,-0.16,-9.65,-1.04,0.02,0.07,0
18500,-0.17,-9.94,-1.17,0,0.11,0.03
18600,-0.02,-9.84,-1.46,0.06,0.11,0.05
18700,-0.13,-9.66,-1.26,0.02,0.12,-0.01
18800,-0.09,-9.75,-1.07,0.12,0.02,0.03
18900,-0.23,-10.17,-1.07,0.01,-0.02,-0.13
19000,-0.39,-9.63,-0.4,0.04,0.13,-0.02
19100,-0.03,-10.02,-0.98,0.1,-0.04,-0.04
19200,-0.24,-9.54,-0.42,0.06,0.1,0.01
19300,-0.33,-9.83,-0.14,0.07,-0.07,-0.05
19400,-0.02,-9.84,-0.45,0.26,-0.01,0.01
19500,-0.16,-9.94,-0.8,0.17,0.13,-0.03
19600,-0.23,-9.99,0.17,-0.06,0.06,-0.01
19700,0,-9.95,0.29,-0.04,0.06,0.02
19800,-0.08,-9.68,0.02,-0.03,0.08,0.08
19900,-0.06,-9.53,-0.21,0.05,-0.06,0.01
20000,-0.32,-9.87,-0.04,-0.07,-0.02,-0.01
20100,-0.44,-9.84,0.19,0.04,-0.04,0.02
20200,-0.07,-9.98,0.01,-0.1,0.15,-0.01
20300,-0.17,-9.83,-0.02,-0.04,0,0.01
20400,-0.32,-9.82,-0.1,-0.09,0,-0.01
20500,-0.47,-9.8,0.28,-0.09,-0.07,0.01
20600,-0.2,-9.75,0.12,-0.03,-0.01,0.01
20700,-0.09,-9.97,-0.23,-0.01,0.06,-0.01
20800,-0.06,-9.66,-0.46,-0.14,0.03,-0.02
20900,-0.13,-9.91,-0.28,-0.14,0.06,-0.03
21000,0.04,-9.79,-0.29,-0.21,-0.04,-0.03
21100,-0.33,-9.63,-0.1,-0.17,-0.08,0.02
21200,0.04,-9.77,-0.77,-0.11,-0.06,-0.03
21300,0.06,-9.83,-0.84,-0.16,-0.12,0
21400,-0.22,-9.82,-0.66,-0.13,-0.15,0.03
21500,0,-9.83,-0.84,-0.17,-0.2,-0.08
21600,-0.12,-9.74,-1.15,-0.06,-0.2,-0.02
21700,-0.04,-9.9,-1.45,-0.07,-0.23,-0.01
21800,0,-9.79,-1.49,-0.08,-0.26,-0.07
21900,-0.16,-10.18,-1.44,-0.11,-0.2,-0.03
22000,0.14,-9.91,-1.32,-0.09,-0.12,0
22100,0.05,-10.4,-1.71,-0.1,-0.08,-0.02
22200,0,-10.06,-1.71,-0.05,-0.21,0
22300,0.12,-9.92,-1.86,-0.08,-0.13,0
22400,0.22,-9.97,-1.99,-0.06,-0.19,-0.03
22500,0.02,-10.12,-1.8,-0.08,-0.1,0
22600,0.25,-10.13,-2.07,-0.12,-0.1,-0.01
22700,0.24,-9.79,-1.85,-0.02,-0.14,-0.02
22800,-0.23,-10.21,-2.08,0.05,-0.23,0.04
22900,0.24,-9.85,-1.87,0.06,-0.1,-0.01
23000,0.25,-9.97,-1.86,0,-0.16,0.02
23100,0.23,-10.06,-2.26,-0.01,-0.11,0.03
23200,0.31,-9.68,-2.14,-0.02,-0.13,-0.03
23300,0.11,-9.87,-2.02,0.02,0.04,-0.06
23400,0.28,-9.68,-2.19,-0.09,-0.15,-0.04
23500,0.18,-10.01,-1.98,-0.13,0.03,-0.06
23600,0.1,-10.25,-1.78,-0.03,-0.03,0.07
23700,0.4,-9.86,-1.73,-0.04,-0.05,0.04
23800,0.34,-9.93,-1.89,0,-0.06,-0.05
23900,0.38,-9.76,-1.97,0.04,-0.12,-0.02
24000,0.33,-9.86,-2.03,0.04,-0.06,0
24100,0.18,-9.97,-1.97,-0.08,0.07,0.01
24200,0.24,-10.04,-2.42,-0.07,0.03,0.02
24300,0.2,-9.74,-1.95,0,0.08,0.01
24400,0.17,-9.79,-1.81,0.03,0.06,-0.04
24500,0.4,-9.83,-2.22,-0.04,0.07,-0.04
24600,0.23,-9.75,-1.78,-0.02,-0.04,0.01
24700,0.46,-9.68,-2,0.01,0.04,-0.08
24800,0.22,-9.77,-1.59,0.03,0.06,0.01
24900,0.19,-9.78,-1.59,-0.05,0.13,-0.08
25000,0.25,-9.78,-1.8,0.05,0.09,-0.02
25100,0.41,-9.79,-2.04,0.08,0.16,-0.04
25200,0.11,-9.94,-1.73,-0.02,0.17,-0.1
25300,0.21,-9.95,-1.84,0,0.26,-0.14
25400,0.2,-9.92,-1.7,0.02,0.14,0.02
25500,0.61,-9.91,-1.73,-0.01,0.16,0.04
25600,0.39,-9.67,-1.47,0.02,0.15,-0.01
25700,0.33,-9.98,-1.66,0.01,0.12,-0.03
25800,0.22,-10.13,-1.62,-0.04,0.08,0.03
25900,0.24,-9.97,-1.7,-0.01,0.23,0.07
26000,0.39,-9.88,-1.79,-0.02,0.19,0.07
26100,0.19,-10.19,-1.51,0.07,0.1,0.04
26200,0.07,-10.2,-1.59,-0.02,0.14,0.03
26300,0.31,-9.94,-1.1,-0.02,0.08,0.06
26400,0.27,-9.86,-1.01,0.16,-0.13,-0.01
26500,0.32,-9.96,-1.37,0.1,0.03,0
26600,0.07,-10.22,-2.44,-0.1,0.16,0.01
26700,0.18,-10.28,-1.71,-0.06,0.19,-0.01
26800,-0.17,-9.78,-0.96,-0.01,0.17,0.05
26900,-0.14,-9.94,-1.09,-0.05,0.14,0.1
27000,0.1,-9.82,-1.33,0.09,0.03,0.08
27100,0.23,-9.77,-1.26,-0.02,0.15,0.02
27200,-0.1,-10.01,-1,0.03,0.14,0.06
27300,0,-9.86,-1.29,-0.02,0.16,0.01
27400,-0.01,-9.74,-1.19,0.08,0.09,0.01
27500,0.1,-9.69,-0.99,0.07,0,-0.09
27600,-0.09,-10.11,-1.18,0.03,0.1,-0.04
27700,0.1,-9.53,-1.21,0.04,0.03,-0.06
27800,0.08,-9.93,-0.75,0.04,0.08,-0.03
27900,0.79,-9.5,-1.12,-0.1,0.19,0.09
28000,0.39,-9.43,-0.9,0.19,-0.08,0.03
28100,0.26,-9.84,-0.72,0.01,0.01,-0.01
28200,-0.06,-9.97,-0.61,0,0,0
28300,0.1,-9.91,-0.86,-0.05,0,0.03
28400,0.06,-9.99,-0.75,-0.03,-0.04,0.02
28500,0.03,-9.87,-0.59,-0.03,-0.02,0.04
28600,0.29,-9.73,-0.45,-0.01,-0.04,0
28700,0.32,-9.63,-0.62,0.03,0.01,-0.03
28800,0.02,-9.88,-0.79,-0.01,-0.03,0.03
28900,0.18,-9.71,-0.67,-0.11,-0.12,0
29000,0.15,-9.9,-1.14,-0.04,-0.06,0.03
29100,0.39,-9.55,-1.02,-0.07,-0.14,0.06
29200,0.19,-9.79,-0.93,-0.09,-0.09,-0.04
29300,0.31,-9.8,-0.97,-0.08,-0.05,-0.01
29400,-0.03,-10.06,-1.11,-0.15,-0.07,0.01
29500,-0.01,-10.12,-1.43,-0.22,-0.07,0.03
29600,-0.09,-10.04,-0.98,-0.19,-0.1,-0.01
29700,0.1,-9.84,-1.43,-0.03,-0.06,-0.01
29800,0.22,-9.88,-1.91,-0.16,-0.06,-0.08
29900,0.05,-9.94,-1.38,-0.14,-0.06,-0.03
30000,-0.02,-9.86,-1.67,-0.09,-0.12,-0.08
30100,0.22,-10.04,-1.5,-0.1,-0.04,-0.07
30200,-0.17,-10.05,-1.43,-0.07,0,-0.02
30300,0.23,-9.73,-2.24,-0.05,-0.17,0.01
30400,0.1,-9.95,-1.88,-0.09,-0.13,-0.01
30500,0.41,-9.51,-1.98,-0.05,-0.11,0
30600,0.02,-9.88,-1.42,-0.11,-0.17,-0.06
30700,0.14,-10.07,-1.55,0.06,-0.12,-0.05
30800,0.42,-9.89,-1.76,-0.04,-0.09,-0.04
30900,0.61,-9.6,-1.48,0.02,0.05,-0.01
31000,0.47,-9.42,-1.92,-0.08,-0.07,-0.03
31100,0.35,-9.61,-1.84,-0.05,-0.18,-0.03
31200,0.61,-9.79,-1.86,0.01,-0.15,-0.05
31300,0.42,-9.78,-2.07,-0.04,-0.18,-0.12
31400,0.24,-10.07,-1.76,-0.07,-0.09,-0.07
31500,0.62,-9.97,-1.86,0.03,-0.1,0.04
31600,0.51,-9.9,-1.9,0.03,-0.11,-0.02
31700,0.21,-9.8,-1.79,-0.07,-0.18,0.04
31800,0.3,-9.9,-1.71,-0.05,-0.23,0.03
31900,0.48,-10,-1.95,0,-0.17,0.01
32000,0.26,-9.83,-1.56,-0.02,-0.14,-0.03
32100,0.38,-9.91,-2.04,0.03,-0.06,-0.02
32200,0.36,-9.85,-1.9,0.02,-0.12,-0.08
32300,0.48,-9.84,-1.52,-0.01,-0.04,-0.06
32400,0.4,-9.86,-1.48,0.01,-0.07,0
32500,0.37,-10,-1.79,0.02,-0.06,0.03
32600,0.19,-10.01,-1.1,0.03,0.09,0.03
32700,0.72,-9.77,-1.59,-0.03,0.04,0.01
32800,0.28,-9.69,-1.27,-0.05,0.05,-0.01
32900,0.52,-9.9,-1.73,-0.01,0.04,-0.01
33000,0.11,-9.8,-1.53,0,0.03,-0.03
33100,0.44,-9.84,-1.58,-0.04,0.08,0
33200,0.16,-10.28,-1.48,-0.06,0.05,0
33300,0.46,-9.95,-1.37,-0.02,0.08,0.07
33400,0.34,-9.82,-1.33,-0.05,0.02,0.04
33500,0.41,-9.93,-1.59,-0.02,0.11,0.02
33600,0.57,-9.72,-1.42,-0.03,0.11,0
33700,0.48,-9.86,-1.63,-0.02,0.14,0
33800,0.32,-9.97,-1.71,0.02,0.21,-0.02
33900,0.38,-9.89,-1.81,-0.05,0.15,0.02
34000,0.59,-9.8,-1.53,0.01,0.17,0.04
34100,0.59,-9.77,-1.63,0,0.24,-0.02
34200,0.49,-10.07,-1.58,-0.02,0.2,-0.02
34300,0.66,-9.84,-1.73,-0.04,0.17,0
34400,0.51,-9.88,-1.62,-0.01,0.22,-0.06
34500,0.56,-9.73,-1.16,0,0.22,0
34600,0.43,-9.87,-1.41,0.01,0.22,0.02
34700,0.32,-9.89,-1.78,-0.01,0.18,0.05
34800,0.4,-9.89,-1.49,-0.09,0.17,0
34900,0.34,-10.03,-1.2,0.06,0.31,-0.01
35000,-0.02,-10.05,-1.4,-0.02,0.19,0.06
35100,0.57,-9.74,-1.26,0.02,0.2,0.05
35200,0.41,-9.81,-1.49,-0.01,0.17,0.03
35300,0.03,-10.04,-1.07,-0.05,0.14,0.02
35400,0.38,-9.81,-1.46,0.02,0.15,0.11
35500,0.43,-9.87,-1.1,0.05,0.12,0.02
35600,0.34,-9.54,-1.09,0.05,0.17,0
35700,0.14,-9.99,-1.04,0.02,0.12,-0.06
35800,0.27,-9.74,-1.02,0.06,0.14,0.03
35900,0.19,-9.93,-1.34,0.04,0.09,0
36000,0.39,-9.59,-1.24,0.05,0.05,0.03
36100,0.37,-9.84,-1.39,0.04,0.03,0.08
36200,0,-9.72,-0.81,-0.08,0.02,0.01
36300,0.16,-9.68,-0.53,0.13,0.03,-0.07
36400,-0.09,-9.67,-0.2,0.04,0.02,-0.06
36500,0.09,-10.22,-0.61,0.07,0.02,-0.03
36600,-0.35,-10.15,-0.52,0.01,0.02,0.01
36700,-0.02,-9.76,-0.32,-0.01,0.03,0.08
36800,-0.42,-10.05,-0.39,-0.07,0.08,0.02
36900,-0.03,-9.63,-0.86,0.01,-0.06,0.03
37000,-0.38,-9.73,-0.26,-0.02,-0.13,-0.05
37100,-0.37,-10.06,-0.59,0.01,-0.12,-0.01
37200,-0.27,-10.16,-0.61,-0.05,-0.09,0.06
37300,-0.2,-9.84,-0.03,-0.11,-0.02,0.08
37400,-0.06,-9.59,-0.04,-0.08,-0.02,0.06
37500,-0.19,-10.06,-0.93,-0.06,-0.01,-0.04
37600,-0.08,-9.86,-0.8,-0.1,-0.03,-0.02
37700,-0.02,-9.73,-0.69,-0.11,-0.04,-0.08
37800,-0.22,-10.14,-0.74,-0.04,-0.06,0
37900,-0.12,-9.81,-1.23,-0.12,-0.14,0.01
38000,-0.13,-9.81,-0.86,-0.12,-0.08,-0.04
38100,0.19,-9.82,-1.1,-0.13,-0.06,0.01
38200,-0.12,-9.93,-1.19,-0.09,-0.09,-0.02
38300,0.3,-9.76,-1.83,-0.04,-0.14,-0.03
38400,0.11,-9.86,-1.46,-0.08,-0.15,-0.08
38500,0.03,-10.18,-1.41,-0.05,-0.16,-0.03
38600,-0.12,-9.98,-1.49,-0.07,-0.16,0.04
38700,0.1,-9.87,-1.86,-0.07,-0.01,-0.03
38800,0.28,-9.82,-1.51,-0.09,-0.15,0
38900,-0.14,-10.12,-1.57,-0.08,-0.21,-0.03
39000,0.08,-9.71,-1.95,-0.08,-0.07,-0.06
39100,0.05,-9.52,-1.32,-0.06,-0.1,-0.14
39200,-0.17,-10.37,-1.88,-0.01,-0.08,-0.08
39300,0.32,-9.68,-1.48,-0.05,-0.2,-0.03
39400,0.51,-9.64,-1.8,-0.02,-0.22,-0.02
39500,0.05,-9.97,-1.79,-0.01,-0.25,-0.02
39600,0.29,-9.99,-1.85,-0.01,-0.18,-0.04
39700,0.4,-9.75,-1.51,0.01,-0.22,-0.05
39800,0.2,-10.27,-1.54,-0.03,-0.16,-0.04
39900,0.17,-9.86,-1.7,-0.09,-0.15,0.05
40000,0.06,-9.96,-1.57,-0.11,-0.06,0.03
40100,0.47,-9.89,-1.78,-0.06,0.06,0.06
40200,0.28,-9.71,-1.98,-0.08,-0.08,0
40300,0,-9.77,-1.99,-0.05,-0.18,-0.02
40400,0.27,-10.19,-1.7,-0.09,-0.15,0.07
40500,0.23,-9.99,-1.67,0.01,-0.1,0.01
40600,0.41,-9.71,-1.86,-0.06,0.04,-0.02
40700,0.17,-9.97,-1.92,0.01,-0.01,-0.02
40800,0.14,-9.89,-1.66,0.01,-0.04,0.03
40900,0.06,-10.2,-1.86,-0.03,0.07,-0.01
41000,0,-10.34,-1.9,-0.05,0.09,0.02
41100,0.46,-9.87,-1.82,-0.06,0.02,0.06
41200,0.2,-10.12,-1.93,-0.09,0.02,0.09
41300,0.7,-9.66,-1.62,0.02,0.05,-0.01
41400,0.31,-9.8,-1.6,-0.01,0.05,0.01
41500,0.14,-9.82,-1.62,-0.05,0.05,-0.02
41600,0.15,-10.18,-1.64,-0.03,0.02,0.02
41700,0.18,-9.94,-1.75,-0.06,0.04,-0.01
41800,0.02,-9.73,-1.48,-0.05,0.1,0.03
41900,0.19,-10.03,-1.79,-0.06,0.23,0.03
42000,0.52,-9.61,-1.99,-0.02,0.11,0.01
42100,0.02,-9.87,-1.46,-0.03,0.14,-0.01
42200,0.44,-9.82,-1.82,-0.02,0.16,0
42300,0.28,-10.04,-2.19,-0.04,0.14,0.04
42400,0.2,-9.97,-1.89,-0.04,0.11,0
42500,0.24,-9.54,-1.55,-0.02,0.06,0.01
42600,0.04,-9.9,-1.49,-0.02,0.08,0.01
42700,-0.02,-10.12,-1.88,-0.08,0.11,0.05
42800,0.01,-9.85,-1.5,-0.03,0.17,0.07
42900,0.24,-9.52,-1.89,0,0.19,0.02
43000,0.38,-9.92,-2.48,-0.01,0.11,-0.02
43100,-0.09,-9.69,-1.39,-0.02,0.14,0
43200,0.07,-9.98,-1.92,0.07,0.12,-0.04
43300,0.08,-10.39,-1.79,-0.06,0.09,0.02
43400,0.13,-9.86,-1.69,-0.03,0.18,0.06
43500,0.06,-9.91,-1.59,0,0.09,0.05
43600,0.03,-9.78,-1.57,-0.01,0.15,-0.05
43700,-0.1,-10.47,-1.47,-0.03,0.16,0.01
43800,0.12,-9.69,-1.27,0.02,0.06,0.13
43900,-0.07,-9.6,-0.84,-0.03,0.18,-0.04
44000,0.3,-10.08,-1.67,-0.02,0.04,0.04
44100,0.06,-10.17,-1.58,-0.07,0.12,0.05
44200,0.34,-9.77,-1.67,0.03,0.1,0
44300,-0.06,-9.93,-1.34,-0.03,0.05,-0.04
44400,0.12,-10,-1.25,-0.03,0.11,-0.01
44500,0.1,-9.95,0,-0.93,0.05,-0.04
44600,0.68,-9.46,-0.98,-0.13,0.06,0.1
44700,0,-9.93,-1.25,0,0.12,0
44800,-0.15,-9.89,-1.17,0.11,0.11,-0.03
44900,-0.44,-10.02,-1.15,-0.03,0.12,0.05
45000,0.13,-9.94,-1.62,0.01,0.19,0.04
45100,0.31,-10.04,-1.25,0.03,0.08,-0.02
45200,0.03,-10.05,-1.07,0.02,0.07,0.06
45300,0.05,-9.82,-0.67,0.04,0.1,0.06
45400,-0.14,-9.87,-0.95,0.02,0,0.04
45500,-0.3,-9.85,-0.81,0,-0.03,-0.04
45600,-0.02,-9.72,-0.98,-0.04,0.03,0.02
45700,-0.34,-10.18,-0.89,-0.07,-0.02,-0.01
45800,-0.33,-10.02,-1,-0.05,-0.08,0.01
45900,0.18,-9.71,-1.06,-0.04,0.04,0
46000,-0.29,-9.96,-1.19,-0.05,-0.05,-0.01
46100,-0.12,-10.07,-0.91,0,-0.04,-0.02
46200,0.2,-9.78,-1.08,-0.05,-0.05,-0.03
46300,0.01,-9.8,-1.02,-0.07,-0.07,-0.03
46400,-0.04,-9.72,-1.11,0.01,-0.05,0
46500,-0.13,-10.22,-1.07,-0.09,-0.07,-0.04
46600,0.03,-10.49,-1.4,-0.22,-0.02,-0.08
46700,0.11,-9.92,-1.5,-0.09,-0.13,0.06
46800,0.17,-9.83,-1.45,-0.17,-0.03,0.08
46900,0.12,-9.79,-1.51,-0.13,-0.15,-0.04
47000,0.24,-9.91,-1.37,-0.05,-0.19,-0.06
47100,0.06,-10,-1.35,-0.03,-0.18,-0.08
47200,0.11,-9.9,-1.49,-0.03,-0.13,-0.01
47300,0.31,-9.84,-1.79,-0.05,-0.09,0.02
47400,0.23,-10.03,-1.68,-0.07,-0.12,-0.05
47500,0.28,-10.06,-1.81,-0.06,-0.1,0.02
47600,0.3,-10.16,-1.48,-0.01,-0.16,-0.02
47700,0.19,-10.09,-1.68,-0.01,-0.06,0.01
47800,0.11,-10.08,-2.15,-0.06,-0.05,0.01
47900,0.28,-9.78,-1.84,-0.08,-0.1,-0.04
48000,0.3,-10.02,-1.81,-0.05,-0.05,-0.03
48100,0.23,-9.93,-1.94,0,-0.05,-0.03
48200,0.2,-10.2,-1.88,0,-0.05,-0.01
48300,0.51,-10.04,-2.13,-0.04,-0.14,-0.02
48400,0.59,-10.04,-2.09,-0.06,-0.16,0.03
48500,0.34,-9.89,-1.74,0.03,-0.12,-0.04
48600,0.66,-10.26,-2.29,-0.04,-0.01,0.01
48700,-0.16,-10.27,-1.49,-0.13,0.09,0.11
48800,0.22,-9.68,-1.38,-0.1,-0.13,0.03
48900,0.67,-9.28,-1.84,-0.04,-0.19,0.03
49000,0.39,-9.79,-1.56,0.04,-0.11,-0.06
49100,0.42,-9.83,-1.87,-0.05,-0.12,0.02
49200,0.24,-10.04,-2.05,0.06,-0.16,-0.01
49300,-0.03,-9.79,-1.5,0.04,-0.17,-0.05
49400,0.48,-10.24,-1.54,0.03,-0.09,0.05
49500,-0.06,-9.98,-1.09,0.03,-0.01,0.03
49600,0.21,-9.96,-1.94,0.08,-0.05,0.02
49700,0.03,-10.21,-1.55,-0.05,-0.06,0.02
49800,0.05,-10.04,-0.56,-0.11,0.11,0.03
49900,-0.09,-9.51,-1.32,0.09,-0.16,0.03
50000,0.24,-9.74,-1.46,-0.06,0.11,-0.01
50100,0.1,-9.73,-1.15,-0.02,0.18,-0.07
50200,-0.23,-9.85,-1.54,-0.03,0.14,-0.08
50300,0.01,-9.81,-1.7,-0.01,0.08,-0.02
50400,0.13,-10.14,-1.64,0.04,0.1,-0.03
50500,-0.05,-9.94,-1.48,-0.05,0.11,-0.01
50600,-0.06,-10.03,-1.47,0,0.05,0.01
50700,-0.15,-10.11,-1.6,-0.05,0.16,-0.05
50800,0.14,-9.82,-1.54,-0.08,0.13,0.07
50900,0.12,-9.66,-1.5,0.01,0.16,-0.01
51000,0.21,-9.8,-1.88,-0.01,0.17,-0.02
51100,0.09,-9.93,-1.55,-0.03,0.11,-0.01
51200,0.31,-9.81,-1.86,-0.06,0.17,-0.09
51300,-0.17,-9.98,-1.86,-0.07,0.18,-0.04
51400,0.19,-9.87,-1.49,-0.02,0.08,0
51500,0.26,-9.95,-2.04,0.01,0.13,-0.04
51600,0.14,-10.32,-2.11,-0.06,0.08,-0.04
51700,0.37,-10.02,-1.16,-0.28,0.09,-0.01
51800,0.25,-9.78,-1.67,-0.03,0.1,0.02
51900,0.17,-9.88,-1.65,-0.06,0.07,0.07
52000,0.06,-9.79,-1.81,0.03,0.11,-0.03
52100,0.05,-9.91,-1.99,-0.01,0.09,0.01
52200,0.53,-10.23,-2.88,0.1,0.13,0.09
52300,-0.11,-9.92,-1.39,-0.01,0.09,0.04
52400,-0.07,-9.92,-1.54,0.03,0.14,0.04
52500,0.38,-10.08,-2.24,0.1,0.04,0.03
52600,-0.17,-9.93,-1.24,0.04,0.1,0.04
52700,-0.07,-9.99,-1.65,0.08,0.08,0.05
52800,0.47,-9.95,-2.01,-0.02,0.07,0
52900,-0.24,-9.98,-1.01,0.01,0.14,-0.04
53000,-0.34,-10,-0.17,0.72,0.32,0.06
53100,-0.07,-9.96,-1.02,-0.01,0.13,-0.01
53200,-0.13,-10,-1.02,0.05,0.14,0.01
53300,-0.42,-10.24,-1.03,-0.03,0.3,0.04
53400,-0.39,-9.92,-0.6,0.09,0.2,0.07
53500,-0.32,-9.64,-1.01,0.06,0.19,0.05
53600,-0.27,-10.19,-0.79,0.05,0.01,-0.04
53700,-0.54,-9.79,-0.29,0,0.06,-0.04
53800,-0.11,-9.73,-0.71,0.05,0.04,0.03
53900,-0.16,-9.59,-0.47,0.01,0.01,-0.06
54000,-0.25,-9.9,-0.52,-0.03,0.06,0
54100,-0.22,-10,-0.21,-0.07,-0.06,-0.08
54200,-0.49,-10.16,-0.62,-0.02,-0.07,-0.04
54300,-0.03,-9.6,-0.61,-0.09,-0.03,0.03
54400,-0.18,-9.8,-0.37,-0.04,0,0
54500,-0.27,-9.83,-0.23,-0.08,-0.01,-0.01
54600,-0.17,-9.87,-0.56,-0.02,0,-0.02
54700,-0.19,-9.85,-0.66,-0.11,0.04,-0.01
54800,-0.06,-9.72,-0.94,-0.01,-0.07,-0.06
54900,-0.32,-9.92,-0.8,-0.14,-0.09,-0.02
55000,-0.09,-9.93,-0.89,-0.13,-0.13,0
55100,-0.15,-9.81,-0.92,-0.1,-0.16,0.01
55200,-0.11,-9.82,-1.17,-0.14,-0.03,0
55300,-0.12,-9.96,-1.15,-0.15,-0.11,-0.04
55400,-0.02,-10.01,-1.16,-0.11,-0.13,0.02
55500,0.07,-9.69,-1.31,-0.08,-0.18,0.02
55600,0.06,-9.78,-1.33,-0.09,-0.18,-0.03
55700,0.21,-9.82,-1.52,-0.07,-0.15,-0.04
55800,0.04,-10.18,-1.74,-0.11,-0.21,-0.04
55900,-0.15,-9.99,-1.36,-0.09,-0.15,0.02
56000,0.08,-9.82,-1.67,-0.09,-0.11,-0.01
56100,0.09,-9.8,-1.85,-0.12,-0.08,0.01
56200,0.03,-9.8,-1.64,-0.03,-0.14,-0.04
56300,-0.01,-10.18,-2.01,-0.09,-0.14,0
56400,0,-9.98,-1.73,-0.12,-0.11,0.01
56500,-0.09,-10.09,-1.76,-0.12,-0.05,0.04
56600,0.3,-9.96,-1.98,-0.03,-0.02,0.01
56700,0.32,-9.52,-1.68,-0.01,-0.1,0
56800,0.16,-10.07,-2.03,0,-0.04,-0.04
56900,0.41,-10.25,-2.04,-0.09,-0.03,0.01
57000,0.28,-9.88,-2.15,-0.02,-0.04,0.08
57100,0.47,-9.92,-1.8,0.02,-0.1,0.03
57200,0.13,-9.62,-1.6,0,-0.12,0.03
57300,0.43,-10.03,-2.03,-0.01,-0.03,0.05
57400,0.24,-9.36,-1.75,0.01,-0.1,0.04
57500,-0.51,-9.86,-1.19,-0.11,-0.16,-0.09
57600,0.41,-10.35,-1.93,0.05,-0.12,0.07
57700,-0.14,-9.81,-1.42,-0.01,-0.11,-0.01
57800,0.16,-9.94,-1.56,0.03,-0.02,0.01
57900,0.09,-9.68,-1.46,0.01,0.02,-0.02
58000,-0.13,-9.99,-1.4,-0.07,-0.01,0.01
58100,0.3,-9.65,-1.66,-0.05,0.05,0.06
58200,0.06,-9.93,-1.51,-0.02,-0.03,-0.1
58300,0,-10.14,-1.71,0,0.03,0
58400,0.03,-9.88,-1.37,0,-0.05,0.01
58500,0,-9.94,-1.9,0,0.04,0.03
58600,-0.13,-9.94,-1.51,-0.04,0.01,0.02
58700,-0.04,-10.18,-1.62,-0.06,0.01,0.03
58800,0.11,-9.79,-1.52,-0.03,0.09,0.02
58900,0.19,-9.88,-1.85,-0.02,0.04,0.01
59000,0.2,-9.95,-1.48,-0.05,0.08,0.03
59100,0.02,-9.6,-1.42,0.01,0.12,-0.01
59200,0.12,-9.79,-1.93,0.03,0.1,0.05
59300,-0.1,-9.98,-1.75,-0.07,0.11,-0.08
59400,-0.19,-10.09,-1.54,-0.02,0.05,0.02
59500,-0.34,-10.18,-1.48,-0.08,0.08,-0.01
59600,-0.24,-9.89,-1.99,-0.03,0.07,-0.01
59700,-0.22,-9.9,-1.65,-0.08,0.1,-0.02
59800,-0.06,-9.81,-1.48,-0.06,0.13,0.04
59900,0.2,-9.44,-1.66,-0.04,0.09,0
60000,-0.07,-9.98,-1.15,-0.01,0.13,0
60100,0.08,-10.11,-1.82,-0.05,0.2,0.01
60200,-0.13,-10.1,-2.12,-0.04,0.21,0.03
60300,-0.21,-9.66,-1.68,-0.05,0.06,0.04
60400,-0.13,-9.87,-1.7,0.01,0.11,-0.01
60500,0.08,-10.3,-2.09,0.04,0.17,0.03
60600,0.18,-9.93,-1.81,0.06,0.12,0.05
60700,0.11,-9.97,-1.36,0,0.12,-0.02
60800,0.02,-9.83,-1.56,0.03,0.13,-0.05
60900,0.35,-9.96,-1.79,0.04,0.15,0.01
61000,1.05,-10.99,-4.6,-1.36,0.1,-0.02
61100,0.38,-9.68,-1.47,-0.18,0.14,0.04
61200,0,-9.71,-1.52,0.04,0.11,-0.01
61300,-0.3,-10.19,-1.33,-0.09,0.12,0.01
61400,0.22,-9.71,-1.43,0.02,0.21,0.1
61500,-0.1,-9.84,-1.08,0.07,0.16,-0.06
61600,0.18,-9.64,-1.1,0.12,0.14,0.02
61700,-0.11,-10.13,-1.43,0.07,0.15,-0.03
61800,-0.02,-9.53,-1.17,0.07,0.23,-0.03
61900,0.11,-9.88,-1.06,0.06,0.23,-0.01
62000,0.14,-9.96,-1.4,0.09,0.07,0.03
62100,0.02,-9.96,-0.95,-0.01,0.14,0.01
62200,-0.1,-9.84,-1.11,0.05,0.05,-0.04
62300,-0.32,-10.08,-0.8,-0.03,0.16,-0.01
62400,0.07,-9.77,-0.58,-0.07,0.1,0.02
62500,-0.05,-9.83,-0.84,0.09,0.01,0.04
62600,-0.11,-9.9,-0.87,-0.03,-0.01,-0.03
62700,-0.19,-10.16,-0.75,0,-0.03,-0.04
62800,-0.51,-9.97,-0.45,-0.05,0.01,0.06
62900,-0.18,-9.89,-0.39,0.02,0.02,0.01
63000,-0.08,-9.93,-0.76,0.01,0,0.04
63100,0.08,-9.81,-0.75,-0.05,0,0.01
63200,0.02,-9.79,-0.75,0.04,-0.02,0.01
63300,0.02,-10.08,-1.01,-0.03,0,-0.05
63400,-0.07,-9.87,-0.57,-0.08,-0.1,-0.01
63500,-0.15,-9.85,-0.65,0,-0.09,-0.04
63600,-0.08,-9.99,-0.71,-0.08,-0.06,-0.01
63700,-0.22,-10.03,-0.34,-0.17,-0.15,-0.04
63800,0.23,-9.72,-0.73,-0.06,-0.05,0.04
63900,0.3,-9.76,-1.25,-0.09,-0.12,-0.01
64000,0.25,-9.89,-1.07,-0.13,-0.17,-0.05
64100,0.24,-9.92,-1.25,-0.07,-0.17,-0.04
64200,0.1,-10.09,-1.28,-0.11,-0.16,-0.01
64300,0.3,-9.91,-1.62,-0.11,-0.12,0.03
64400,0.34,-9.87,-1.51,-0.06,-0.18,0.01
64500,0.02,-10.08,-1.54,-0.11,-0.22,-0.02
64600,0.54,-9.84,-2.55,-0.24,-0.14,0
64700,0.2,-9.99,-1.66,-0.1,-0.18,0
64800,0.18,-9.73,-1.9,-0.08,-0.15,0.01
64900,0.2,-9.86,-2.32,-0.08,-0.16,-0.03
65000,0.18,-9.95,-2.49,-0.02,-0.2,-0.04
65100,-0.05,-10.1,-2.2,-0.03,-0.21,0.04
65200,0.25,-9.84,-2.26,-0.04,-0.15,0.06
65300,0.33,-9.41,-1.68,0.03,-0.17,-0.03
65400,0.17,-9.9,-2.14,0,-0.16,-0.1
65500,0.18,-9.84,-1.83,0.04,-0.19,-0.04
65600,0.45,-9.66,-2.07,0.07,-0.13,-0.05
65700,0.15,-9.76,-1.96,0.07,-0.2,-0.1
65800,0,-10.06,-1.85,-0.03,-0.13,-0.01
65900,0.51,-10.33,-2.51,0.03,-0.05,0.04
66000,-0.02,-9.87,-1.56,0.04,-0.19,0.02
66100,0.11,-9.96,-1.89,0,-0.09,0.05
66200,-0.19,-9.47,-1.44,0.02,-0.14,0.07
66300,-0.02,-9.68,-1.67,-0.02,-0.03,0.07
66400,0.69,-10.06,-1.71,-0.11,0.04,0.06
66500,0.2,-9.76,-1.23,0.01,0.25,-0.03
66600,0.01,-10.13,-1.33,-0.02,0.12,-0.04
66700,-0.01,-9.93,-1.5,-0.06,0.14,0
66800,0.32,-9.54,-1.41,-0.04,-0.17,0.02
66900,0.24,-9.66,-1.66,0,0.06,0.01
67000,0.07,-9.93,-1.37,-0.04,-0.01,-0.05
67100,-0.1,-9.96,-1.5,0.01,0.02,-0.02
67200,-0.11,-10.2,-1.55,0.01,0.07,-0.02
67300,0.11,-9.8,-1.58,0.02,0.05,0
67400,0.24,-9.78,-1.2,-0.03,0.07,-0.01
67500,0.04,-10.17,-1.71,0.01,0.07,-0.03
67600,-0.1,-9.97,-1.39,-0.07,0.04,-0.04
67700,0.25,-9.91,-1.48,-0.05,0.09,-0.01
67800,-0.21,-10.03,-1.91,-0.05,0.05,0.03
67900,0.05,-10.13,-1.46,-0.07,0.05,0.06
68000,0.05,-9.91,-1.69,-0.03,0.09,0.02
68100,0.43,-9.76,-1.34,-0.03,0.07,0
68200,-0.03,-9.85,-1.3,-0.01,0.17,-0.09
68300,0.24,-9.94,-1.83,0,0.17,0
68400,0.47,-9.85,-2.09,0.02,0.11,-0.02
68500,-0.03,-10.01,-1.53,-0.1,0.11,0.05
68600,0.48,-9.81,-1.48,-0.02,0.16,0
68700,0.12,-9.95,-1.53,-0.01,0.12,0.02
68800,0.17,-9.59,-1.3,-0.01,0.14,0.05
68900,0.39,-9.82,-1.51,-0.01,0.19,-0.04
69000,0.26,-10.11,-1.19,0.04,0.19,0.06
69100,0.16,-9.72,-1.44,0.04,0.21,-0.01
69200,0.03,-9.83,-1.46,0.12,0.08,0.04
69300,0.05,-10.06,-1.33,0.05,0.17,0.02
69400,0.18,-9.85,-1,0.01,0.12,0.02
69500,0.1,-9.85,-0.93,0.06,0.13,0.04
69600,0,-9.79,-1.11,0.1,0.14,0.03
69700,0.27,-9.38,-0.86,0.1,0.14,0
69800,0.07,-10,-0.88,-0.09,0.13,-0.09
69900,0.27,-9.87,-0.87,0.09,0.08,-0.01
70000,0,-9.87,-0.65,0.06,0.15,-0.01
70100,-0.17,-9.96,-0.69,0,0.17,-0.02
70200,0.06,-9.67,-0.14,0.01,0.21,0.01
70300,-0.17,-10.24,-0.54,-0.04,0.18,-0.04
70400,-0.13,-10.12,-0.5,0.13,0.11,0.04
70500,0.26,-9.82,-0.55,0.04,0.11,0.01
70600,0.23,-9.96,-0.74,0.11,0.05,0.01
70700,-0.32,-9.76,-0.39,-0.01,0.07,-0.02
70800,-0.01,-9.98,-0.47,-0.05,0.11,0.06
70900,0.14,-9.88,-0.12,0.05,0.01,-0.01
71000,-0.03,-9.77,-0.29,0.09,0.06,0
71100,-0.46,-9.65,-0.33,-0.07,0.07,0.02
71200,0.13,-9.49,0.16,0,0.1,0.04
71300,0.04,-9.65,-0.19,0,0.05,0.05
71400,0,-9.66,-0.37,0.03,-0.04,-0.05
71500,-0.17,-9.98,-0.16,-0.08,-0.02,-0.02
71600,-0.17,-9.9,-0.24,-0.09,-0.08,-0.02
71700,0.05,-9.71,-0.59,-0.08,-0.08,-0.03
71800,-0.09,-9.92,-0.31,-0.12,-0.06,0
71900,0.06,-9.81,-0.32,-0.1,-0.18,-0.02
72000,-0.01,-9.93,-0.59,-0.06,-0.04,0.03
72100,-0.15,-9.95,-0.7,-0.14,-0.08,-0.04
72200,0.08,-9.74,-0.49,-0.08,-0.21,-0.09
72300,-0.04,-10.1,-1.04,-0.15,-0.16,-0.05
72400,0.02,-10.02,-0.99,-0.22,-0.14,0
72500,0.4,-9.85,-1.26,-0.15,-0.17,-0.05
72600,0.45,-9.81,-1.24,-0.12,-0.21,-0.05
72700,0.36,-9.9,-1.94,-0.08,-0.19,-0.01
72800,0.41,-9.61,-1.92,-0.1,-0.18,-0.05
72900,0.36,-9.9,-1.8,-0.08,-0.26,-0.09
73000,0.45,-9.93,-1.98,-0.06,-0.26,-0.02
73100,0.28,-10,-2.04,-0.06,-0.24,-0.01
73200,0.3,-10.11,-1.87,-0.05,-0.18,-0.02
73300,0.58,-9.76,-2.55,-0.05,-0.18,0.02
73400,0.17,-9.92,-1.98,-0.1,-0.16,0.01
73500,0.43,-9.68,-1.9,-0.07,-0.11,0.01
73600,0.51,-9.83,-2.38,-0.07,-0.16,-0.01
73700,-0.08,-10.03,-1.97,-0.04,-0.13,-0.05
73800,0.3,-9.7,-1.78,0,-0.11,-0.04
73900,0.29,-10.01,-2.04,0.02,-0.06,-0.02
74000,0.6,-9.76,-2.4,0.01,-0.02,-0.04
74100,0.32,-10.14,-2.04,0.04,-0.09,-0.04
74200,0.68,-9.91,-2.35,0.09,-0.06,0.01
74300,0.41,-9.72,-2.12,-0.01,-0.11,-0.02
74400,0.26,-10.36,-1.67,-0.03,-0.19,-0.07
74500,0.29,-10.28,-1.69,-0.01,-0.07,0
74600,0.53,-10.38,-2.09,-0.04,-0.08,0.09
74700,0.19,-10.12,-1.67,-0.07,-0.01,-0.03
74800,0.01,-9.96,-1.75,-0.04,-0.03,0.03
74900,0.16,-10.07,-2.08,-0.03,-0.05,0
75000,0.34,-9.98,-1.83,-0.06,-0.03,0.04
75100,0.45,-9.84,-1.62,-0.03,-0.1,0.04
75200,0.05,-10,-1.37,-0.03,-0.04,0.06
75300,0.24,-9.73,-1.45,-0.08,0.01,0.02
75400,0.41,-9.83,-1.75,-0.04,0.03,-0.02
75500,0.54,-9.98,-1.87,-0.04,0.04,-0.04
75600,-0.03,-10.01,-1.67,0.05,0.14,-0.04
75700,0.36,-10.01,-2.08,0,0.06,0.03
75800,0.14,-9.9,-1.65,-0.05,0.03,-0.01
75900,0.41,-9.78,-1.73,0.02,0.05,0
76000,0.51,-9.9,-1.94,-0.06,0.09,-0.01
76100,0.18,-9.99,-1.45,0.13,0.14,0.16
76200,0.17,-9.8,-1.52,0,0.04,0.01
76300,0.2,-10.05,-1.79,-0.04,0.13,-0.03
76400,0.13,-9.9,-1.63,-0.06,0.05,0.01
76500,0.14,-9.81,-1.66,-0.04,0.06,0
76600,0.38,-9.95,-1.66,-0.03,0.06,0.03
76700,0.55,-10,-1.8,0.01,0.09,-0.04
76800,0.67,-9.88,-1.73,-0.03,0.14,-0.07
76900,0.53,-9.82,-1.82,-0.06,0.14,-0.06
77000,0.3,-9.9,-1.78,0,0.13,-0.01
77100,0.74,-9.67,-1.98,0.02,0.08,0.03
77200,0.27,-10.13,-1.82,0.03,0.08,-0.05
77300,0.19,-9.92,-1.64,0.03,0.19,-0.02
77400,0.56,-10.05,-1.87,-0.02,0.13,0.04
77500,0.45,-9.66,-1.75,0.02,0.15,-0.02
77600,0.17,-9.8,-1.7,0.03,0.07,-0.01
77700,0.32,-9.92,-1.7,0.03,0.12,-0.03
77800,0.22,-10.28,-1.6,-0.03,0.11,0.03
77900,0.01,-10.12,-1.44,-0.09,0.13,0.13
78000,0.42,-9.63,-1.37,0.05,0.24,0.03
78100,0.35,-9.75,-1.19,0.11,0.21,-0.05
78200,0.36,-10.18,-2.07,0.06,0.15,-0.04
78300,0.07,-9.92,-1.31,0.04,0.06,0.01
78400,0.09,-9.62,-0.42,0.09,0.15,0.01
78500,0.08,-9.74,-0.99,0.12,0.14,0
78600,-0.24,-10.31,-0.98,0.11,0.02,0.11
78700,0.31,-9.78,-0.43,0.02,0.23,0.06
78800,0.27,-9.64,-0.96,0.05,0.21,0.02
78900,0.06,-9.85,-1.09,0.02,0.26,-0.05
79000,-0.07,-9.9,-0.4,0.04,0.24,-0.1
79100,-0.16,-10,-0.37,0,0.16,0
79200,0.11,-9.62,-0.32,0.02,0.14,-0.03
79300,0.11,-9.84,-0.43,-0.01,0.09,-0.02
79400,-0.17,-9.93,-0.2,0.05,0.06,0.03
79500,-0.13,-9.84,-0.07,-0.03,0.04,0.01
79600,-0.25,-9.95,-0.14,-0.06,0.06,0.05
79700,-0.06,-9.71,-0.37,-0.1,0.03,0.06
79800,0,-9.58,-0.15,0.03,-0.01,0
79900,0.1,-9.77,-0.28,-0.04,0.01,0.01
80000,-0.14,-9.84,-0.23,-0.01,-0.05,0
80100,-0.15,-9.94,-0.03,0.01,-0.04,0
80200,-0.12,-9.81,-0.17,-0.01,-0.02,-0.07
80300,-0.18,-9.85,-0.55,-0.12,0.01,0.01
80400,-0.07,-9.85,-0.22,-0.08,-0.08,0.01
80500,-0.14,-9.81,-0.32,-0.12,-0.08,-0.05
80600,-0.11,-10.06,-0.37,-0.1,-0.1,-0.07
80700,-0.04,-10.05,-0.46,-0.07,-0.12,-0.01
80800,0.04,-9.96,-0.51,-0.13,-0.01,0.08
80900,0.19,-9.85,-0.64,-0.1,-0.13,-0.06
81000,0.27,-10.07,-0.93,-0.12,-0.09,-0.1
81100,0.09,-9.86,-1.16,-0.15,-0.18,0.03
81200,0.32,-9.88,-1.11,-0.08,-0.16,0.08
81300,0.18,-9.84,-1.04,-0.11,-0.22,-0.01
81400,0.26,-9.79,-1.37,-0.04,-0.22,-0.06
81500,0.35,-9.98,-1.32,-0.11,-0.16,-0.04
81600,0.17,-10.15,-1.55,-0.06,-0.13,0.04
81700,0.28,-10.09,-1.62,-0.13,-0.05,0.05
81800,0.08,-9.93,-1.72,-0.06,-0.16,-0.01
81900,-0.02,-10.01,-1.5,-0.08,-0.12,-0.01
82000,0.62,-9.81,-1.6,-0.05,-0.12,-0.01
82100,0.6,-9.68,-2.02,-0.33,-0.22,0.03
82200,0.38,-10.02,-1.87,-0.09,-0.16,-0.01
82300,0.31,-9.8,-2.01,0,-0.18,0
82400,0.4,-9.78,-1.97,0.02,-0.15,-0.02
82500,0.28,-9.8,-2.02,-0.03,-0.11,-0.04
82600,0.2,-10.01,-1.97,0.02,-0.04,-0.15
82700,0.34,-10.2,-1.8,-0.08,-0.13,0.03
82800,-0.27,-9.81,-1.93,-0.02,-0.06,-0.09
82900,0.24,-10.62,-2.24,0.12,-0.13,0.14
83000,0.39,-10.02,-2.22,-0.07,-0.16,0.07
83100,0.19,-9.88,-1.73,-0.07,-0.06,0.08
83200,0.17,-9.69,-1.59,-0.05,-0.12,0.06
83300,0.53,-9.89,-2.25,0.09,0.02,0.06
83400,0.06,-9.78,-1.57,0.04,-0.01,-0.05
83500,0.72,-9.99,-1.94,0.06,0.07,-0.01
83600,0.55,-10.35,-1.64,-0.03,0.33,-0.08
83700,0.18,-9.84,-1.58,-0.04,0.09,0.01
83800,0.3,-9.91,-1.6,0.05,0.01,0.1
83900,0.16,-9.88,-1.69,-0.03,0,0.04
84000,0.23,-10.01,-2.02,-0.05,0.03,0
84100,0.03,-10.11,-1.89,-0.05,0.19,-0.04
84200,-0.19,-10.14,-1.6,-0.06,0.03,0.03
84300,0.11,-9.93,-1.87,-0.02,0.04,-0.01
84400,0.31,-9.74,-1.84,-0.01,0.04,-0.03
84500,0.57,-9.8,-1.49,0.03,0.02,-0.04
84600,0.05,-10.05,-1.77,-0.01,0.06,0.04
84700,0.13,-9.79,-1.42,-0.07,0.03,0.04
84800,0.3,-9.79,-1.83,-0.06,0.12,0.02
84900,0.11,-10.13,-1.62,-0.06,0.05,-0.05
85000,0.11,-10.07,-1.64,-0.07,0.07,0.03
85100,-0.05,-9.96,-1.69,-0.03,0.11,0.03
85200,0.46,-9.78,-2.25,-0.04,0.15,-0.02
85300,0.14,-9.9,-2.04,-0.02,0.09,0.03
85400,0.34,-9.85,-1.8,-0.02,0.07,0.01
85500,0.25,-9.95,-1.77,-0.02,0.09,-0.01
85600,-0.11,-10.03,-1.72,-0.01,0.13,-0.03
85700,0.22,-10.14,-1.95,-0.03,0.12,0.04
85800,0.1,-9.98,-1.89,-0.05,0.14,0.07
85900,0.4,-9.67,-1.78,-0.02,0.12,0.02
86000,0.44,-10.11,-2.13,-0.03,0.18,-0.03
86100,0.18,-9.81,-1.9,-0.04,0.17,0
86200,0.1,-9.92,-1.71,-0.03,0.15,-0.01
86300,0.17,-10.1,-1.6,0.06,0.03,0
86400,0.11,-9.94,-1.6,0.08,0.17,0
86500,0.12,-10.16,-1.56,0.06,0.1,0.03
86600,0.1,-10.15,-1.64,0.1,0.17,0.07
86700,0.21,-9.87,-1.54,0.03,0.25,0.06
86800,0.71,-9.8,-2.04,0.12,0.08,0.05
86900,0.2,-9.81,-1.86,0.12,0.2,0.07
87000,0.04,-9.75,-1.48,0.11,0.12,-0.07
87100,0.07,-9.6,-0.92,0.01,0.18,-0.07
87200,0.02,-10.05,-1.17,0.08,0.16,-0.02
87300,-0.3,-10.35,-1.12,-0.04,0.23,-0.01
87400,0.38,-9.86,-1.3,-0.02,0.23,0.01
87500,-0.28,-9.79,-0.98,0.02,0.14,0.01
87600,0.17,-10.12,-1.31,-0.04,0.14,0.03
87700,-0.01,-10.03,-0.71,0.05,0.06,-0.05
87800,-0.38,-10.25,-0.87,-0.09,0.17,0.08
87900,0.06,-9.87,-0.76,0.01,0.11,0.1
88000,0,-9.79,-1.42,0,0.07,0.03
88100,-0.31,-9.72,-0.79,0.06,-0.11,0.02
88200,-0.14,-9.99,-0.75,0.01,-0.09,-0.01
88300,-0.11,-9.83,-0.82,0.06,0,-0.06
88400,-0.15,-9.75,-0.52,-0.07,0,0.03
88500,-0.01,-9.77,-0.6,-0.03,-0.05,0
88600,-0.2,-9.94,-0.63,0.12,-0.01,0.02
88700,-0.12,-9.75,-0.81,-0.01,0.05,0.01
88800,-0.12,-9.81,-0.82,-0.03,-0.04,-0.02
88900,0.04,-9.98,-0.57,-0.04,0.01,-0.02
89000,0,-9.58,-0.7,-0.05,-0.06,-0.02
89100,0.23,-9.66,-1.02,-0.05,-0.04,-0.02
89200,-0.04,-9.99,-0.51,-0.09,-0.02,-0.04
89300,0.06,-10.03,-1.08,-0.03,-0.02,-0.02
89400,0.08,-9.93,-0.99,-0.14,-0.02,0
89500,0.12,-9.64,-0.64,0,-0.14,-0.02
89600,0.15,-9.91,-1.15,-0.05,-0.12,-0.09
89700,-0.11,-9.83,-1.08,-0.06,-0.17,0
89800,0.23,-9.87,-0.66,-0.15,-0.15,0
89900,0.55,-9.69,-1.66,-0.12,-0.12,-0.08
90000,0.27,-10.05,-1.54,-0.24,-0.14,-0.02
90100,0.28,-9.94,-1.74,-0.12,-0.19,-0.01
90200,0.63,-9.86,-1.92,-0.1,-0.15,-0.05
90300,0.4,-9.87,-2.05,-0.08,-0.24,-0.03
90400,0.29,-10.12,-1.99,-0.11,-0.26,-0.01
90500,0.28,-9.89,-2.07,-0.11,-0.27,0
90600,0.35,-9.94,-2,-0.06,-0.21,-0.03
90700,0.43,-9.95,-2.16,-0.1,-0.14,0.02
90800,0.29,-10.01,-2.33,-0.07,-0.21,0
90900,-0.04,-10.14,-2.2,-0.01,-0.13,0.02
91000,0.12,-9.86,-2.11,0.03,-0.19,-0.01
91100,0.18,-9.58,-1.92,-0.05,-0.18,-0.06
91200,0.16,-10.01,-2.19,-0.07,-0.13,0.02
91300,0.53,-9.86,-2.11,-0.04,-0.15,-0.01
91400,0.23,-9.72,-2.03,0.02,-0.18,-0.06
91500,-0.03,-10.02,-2.35,-0.02,-0.2,-0.02
91600,0.32,-10.19,-2.2,0.01,-0.1,0.06
91700,0.4,-9.77,-1.98,-0.06,-0.13,0.13
91800,0.43,-9.78,-2.21,-0.06,0.02,0.03
91900,0.18,-9.65,-1.68,-0.01,0.01,-0.01
92000,0.43,-9.79,-2.02,0.02,-0.02,0
92100,0.06,-9.87,-1.94,-0.07,0.06,-0.03
92200,0.13,-9.86,-2.32,-0.01,-0.05,-0.02
92300,0.02,-10.03,-2.01,-0.03,0.01,0.02
92400,-0.31,-10.02,-2.03,-0.13,0.12,0.03
92500,0,-9.65,-1.95,-0.03,0.06,0.04
92600,0.15,-9.97,-2.01,0,0.02,0.02
92700,0.11,-10.09,-2.22,-0.01,0.03,-0.02
92800,0.15,-9.96,-2.01,-0.02,0.03,0.05
92900,0.11,-9.83,-1.53,-0.02,0.01,-0.04
93000,0.13,-9.87,-2.24,-0.07,0.12,-0.08
93100,-0.08,-9.93,-2.07,-0.05,0.04,0.04
93200,0.15,-9.73,-1.85,-0.02,0.01,-0.01
93300,0.17,-9.76,-1.6,-0.02,0.07,0.01
93400,0.23,-9.81,-2.12,-0.04,0.08,-0.03
93500,-0.05,-10.02,-1.75,-0.04,0.03,-0.06
93600,0.06,-10,-2.08,-0.01,0.07,-0.03
93700,0.31,-9.83,-2.01,-0.05,0.08,-0.01
93800,0.25,-9.98,-1.79,-0.04,0.08,-0.04
93900,-0.13,-10.13,-1.81,-0.03,0.12,0.01
94000,0.14,-9.81,-2.22,-0.06,0.1,-0.01
94100,0.12,-10.08,-1.77,-0.03,0.06,0.02
94200,0.22,-9.69,-1.51,-0.05,0.16,0
94300,0.31,-9.46,-1.61,0.03,0.13,0
94400,0.34,-9.85,-1.99,0.04,0.12,0
94500,0.64,-9.94,-1.88,0.07,0.05,-0.04
94600,0.28,-9.82,-1.59,0.01,0.08,0.02
94700,0.17,-9.99,-1.62,0.01,0.17,0
94800,0.65,-10.01,-2.23,-0.04,0.19,0.07
94900,0.26,-10.03,-1.71,-0.02,0.12,0.04
95000,0.41,-9.98,-1.35,-0.05,0.17,0.06
95100,0.33,-9.85,-1.32,-0.01,0.22,-0.02
95200,0.4,-9.7,-0.73,0.01,0.14,-0.03
95300,0.58,-10.01,-0.63,0.02,0.26,0.02
95400,0.24,-10.07,-1.47,-0.14,0.21,0.05
95500,0.28,-9.7,-1.34,0.03,0.19,0.01
95600,0,-9.96,-1.11,0,0.2,0.02
95700,0.21,-9.98,-1.28,0.04,0.27,0.03
95800,0,-9.91,-1.46,-0.01,0.19,0.03
95900,-0.19,-10.11,-1.21,-0.02,0.19,0.03
96000,0.29,-9.86,-1.05,0.05,0.16,0.03
96100,0.13,-10.01,-1.02,0.09,0.16,-0.02
96200,-0.08,-9.63,-0.6,0.06,0.1,0.05
96300,0.33,-9.95,-0.83,0.11,0.06,-0.01
96400,-0.12,-10.04,-0.79,0.07,0.13,-0.01
96500,0.02,-9.84,-0.63,-0.02,0.05,0.01
96600,0.07,-9.84,-0.46,0.06,0.03,0.01
96700,-0.18,-10.09,-0.68,0.04,-0.01,-0.01
96800,-0.12,-9.89,-0.65,0,0.02,-0.01
96900,-0.08,-9.79,-0.4,0,0.08,0.04
97000,-0.14,-10.04,-0.66,-0.09,0.07,0.02
97100,-0.08,-9.82,-0.84,-0.06,-0.03,-0.04
97200,-0.2,-9.96,-0.27,0,-0.06,-0.02
97300,-0.28,-10.03,-0.51,-0.06,-0.02,0
97400,0.13,-9.76,-0.52,-0.09,0.01,0.01
97500,-0.07,-9.75,-0.51,-0.1,-0.14,-0.07
97600,-0.02,-9.86,-0.61,-0.04,-0.14,-0.05
97700,0.38,-9.82,-0.67,-0.05,-0.05,-0.03
97800,0.14,-9.9,-0.84,-0.09,-0.01,-0.07
97900,0.26,-10,-0.89,-0.1,-0.01,0.04
98000,0.3,-9.74,-1.21,-0.11,-0.15,-0.03
98100,0.08,-9.82,-1.14,-0.08,-0.16,0.01
98200,0.2,-9.78,-1.31,-0.14,-0.14,-0.02
98300,0.37,-9.84,-1.17,-0.11,-0.15,-0.01
98400,0.4,-10.1,-1.27,-0.19,-0.17,-0.01
98500,0,-9.97,-1.58,-0.11,-0.25,-0.02
98600,0.44,-9.72,-1.49,-0.12,-0.25,0.01
98700,0.21,-9.94,-1.57,-0.07,-0.22,-0.01
98800,0.21,-9.95,-1.79,-0.1,-0.23,-0.05
98900,0.13,-9.8,-1.48,-0.11,-0.21,-0.02
99000,0.47,-9.9,-1.89,-0.06,-0.17,-0.04
99100,0.45,-9.95,-1.91,-0.07,-0.2,-0.06
99200,0.6,-10.03,-2.02,-0.01,-0.18,-0.05
99300,0.5,-9.94,-1.92,-0.02,-0.09,0
99400,0.66,-9.86,-1.98,0,-0.14,0
99500,0.49,-9.88,-1.91,-0.01,-0.05,-0.01
99600,0.49,-9.87,-2.42,-0.11,-0.12,0.04
99700,0.64,-9.72,-2.21,-0.07,-0.16,-0.01
99800,0.52,-9.49,-2.04,-0.08,-0.07,0
99900,0.33,-9.83,-2.18,-0.02,-0.07,-0.06
100000,0.22,-9.75,-1.92,0.06,-0.1,0.03
100100,0.3,-9.71,-2.24,0.06,-0.11,-0.07
100200,0.42,-9.86,-1.9,-0.03,-0.02,-0.01
100300,0.23,-10.06,-2.02,0.02,0,0.03
100400,0.41,-9.48,-1.57,0.03,-0.01,-0.03
100500,0.66,-9.86,-1.97,-0.02,0.02,-0.03
100600,0.1,-9.91,-1.69,-0.03,0.12,-0.01
100700,0.73,-9.58,-1.78,-0.07,0.08,0.01
100800,0.01,-9.84,-1.25,-0.02,-0.01,-0.05
100900,0.15,-10.34,-1.81,0.04,0.02,0.02
101000,0.42,-9.82,-1.66,-0.04,0.02,0.04
101100,0.25,-9.72,-1.48,-0.05,0.09,0.01
101200,0.38,-9.87,-1.7,-0.01,0.13,-0.04
101300,0.18,-9.75,-1.83,-0.03,0.07,0
101400,0.14,-9.87,-1.87,-0.05,0.05,0.03
101500,0.38,-9.67,-1.58,-0.04,0.03,0.03
101600,0.47,-9.66,-1.74,-0.07,0.09,-0.02
101700,0.04,-10.06,-1.82,-0.07,0.04,0
101800,0.55,-9.8,-1.68,-0.03,0.02,0.03
101900,0.43,-9.94,-1.89,-0.04,0.11,0
102000,0.13,-9.98,-2.02,-0.01,0.13,-0.02
102100,-0.13,-10.2,-2.05,-0.07,0.15,0.02
102200,0.39,-9.93,-2.23,-0.05,0.17,0.04
102300,0.42,-9.81,-2.08,-0.01,0.09,0.03
102400,0.23,-9.87,-1.75,-0.01,0.15,-0.02
102500,0.08,-9.87,-1.86,-0.03,0.14,0.02
102600,0.38,-9.75,-1.51,0.02,0.08,0.06
102700,0.04,-10.14,-1.83,0.02,0.16,-0.01
102800,0.43,-9.95,-1.92,0.03,0.14,0.04
102900,0.53,-9.79,-2.01,0.06,0.03,0.08
103000,0.38,-9.97,-1.44,0.1,0.02,0.03
103100,0.46,-9.69,-1.2,0.09,0.21,0
103200,0.36,-10.1,-1.92,0.08,0.14,0.06
103300,0,-9.95,-1.6,-0.04,0.11,0.07
103400,-0.2,-9.85,-0.95,-0.02,0.1,0.01
103500,-0.03,-9.9,-1.09,0.06,0.17,0.04
103600,0.67,-9.74,-1.01,0.04,0.2,0.04
103700,0.17,-9.79,-1.09,0.06,0.17,-0.02
103800,-0.17,-9.75,-0.88,0.08,0.15,0
103900,0,-10.33,-0.93,-0.01,0.19,0.04
104000,0.23,-9.67,-1.35,0.05,0.21,0.04
104100,0.18,-9.96,-1.14,0.08,0.11,-0.03
104200,-0.16,-9.84,-0.68,0.08,0.12,-0.01
104300,0.2,-9.73,-0.93,0,0.17,-0.01
104400,0.18,-9.7,-1.08,0.08,0.11,-0.02
104500,-0.22,-9.92,-0.94,0.12,0.05,-0.04
104600,-0.07,-10.08,-1.15,-0.08,0.1,0.03
104700,-0.06,-9.89,-0.75,0.04,0.04,-0.04
104800,-0.13,-9.91,-0.66,0.09,-0.01,-0.02
104900,-0.31,-9.72,-0.45,0.12,0.03,0.04
105000,0.21,-9.88,-0.99,0.04,0.05,0.01
105100,-0.05,-9.83,-0.59,-0.05,-0.02,-0.03
105200,-0.19,-9.73,-0.19,-0.11,-0.09,-0.04
105300,-0.12,-10.15,-0.52,-0.07,0.05,0
105400,-0.45,-10.13,-0.92,-0.11,0.1,-0.03
105500,-0.32,-10.06,-0.85,-0.07,0.04,0.07
105600,0.24,-9.75,-0.93,-0.09,-0.03,-0.02
105700,-0.25,-9.91,-0.62,-0.07,-0.09,-0.05
105800,-0.25,-10.17,-1.13,-0.06,-0.07,-0.04
105900,-0.04,-9.95,-0.94,-0.07,-0.14,-0.01
106000,0.17,-9.73,-1.17,-0.13,-0.14,-0.06
106100,0.18,-9.86,-1.39,-0.22,-0.12,-0.04
106200,0.07,-9.88,-1.08,-0.18,-0.12,-0.02
106300,0.19,-10.02,-1.58,-0.1,-0.17,-0.04
106400,0.06,-10.01,-1.24,-0.11,-0.24,0.02
106500,0.21,-9.79,-1.55,-0.1,-0.24,-0.01
106600,0.58,-9.79,-2,-0.09,-0.15,-0.03
106700,-0.14,-10.18,-1.41,0.22,-0.28,0.02
106800,2.39,-10.19,-5.29,-1.17,-0.36,0.1
106900,-0.08,-10.19,-1.61,-0.01,-0.18,0.06
107000,-0.03,-10.28,-2.09,-0.1,-0.21,-0.02
107100,0.39,-9.95,-1.87,-0.11,-0.16,0.06
107200,0.22,-9.63,-1.95,-0.08,-0.2,0
107300,0.26,-10.06,-2.23,-0.1,-0.12,-0.02
107400,-0.01,-9.74,-2.21,-0.09,-0.28,0.02
107500,0.2,-9.61,-1.88,-0.07,-0.26,0.02
107600,0.15,-9.95,-1.88,-0.05,-0.06,-0.01
107700,0.4,-9.73,-1.78,0.03,-0.13,0.02
107800,0.07,-9.95,-1.78,-0.04,-0.09,-0.03
107900,0.31,-9.73,-2.19,-0.02,-0.03,-0.04
108000,0.27,-9.87,-1.86,-0.01,-0.1,0.03
108100,0.1,-9.79,-2.13,0.01,-0.12,0.02
108200,-0.17,-9.66,-2.06,-0.11,0.22,-0.07
108300,-0.18,-10.1,-1.58,0.05,0.14,0.01
108400,0.05,-9.9,-1.93,-0.02,-0.05,0.01
108500,0.19,-9.85,-2.05,-0.01,-0.03,0
108600,0.11,-9.9,-1.92,-0.01,0.01,0.02
108700,-0.12,-9.79,-2.01,-0.04,0.02,-0.02
108800,0.2,-9.74,-2.02,-0.06,0.02,0.01
108900,-0.23,-9.9,-1.82,-0.05,-0.01,-0.01
109000,-0.02,-9.99,-2.29,-0.04,0.05,0.02
109100,0.04,-9.96,-2.29,-0.08,0.1,-0.02
109200,0.38,-10,-1.83,-0.07,0.07,0.03
109300,0.03,-9.85,-1.65,-0.06,0.1,0.02
109400,0.01,-9.68,-1.85,-0.04,0.16,0.02
109500,-0.12,-9.88,-2.11,-0.03,0.09,0.02
109600,0.18,-9.77,-2.04,-0.01,0.12,0.02
109700,0.18,-9.99,-2.02,-0.02,0.15,0.01
109800,0.22,-9.98,-2.33,-0.03,0.17,0.02
109900,-0.15,-9.95,-1.84,0.01,0.12,0.02
110000,-0.42,-10.26,-2.36,0.01,0.15,0.03
110100,-1.27,-10.2,-0.07,0.02,0.11,0.04
110200,0.07,-9.95,-2.22,0.01,0.17,0.08
110300,0.52,-9.94,-3.06,0.13,0.17,0.13
110400,-0.2,-9.74,-1.71,0.03,0.13,0.03
110500,0.12,-9.83,-1.54,0.11,0.1,-0.01
110600,0.09,-10.11,-1.64,0.14,0.12,0.03
110700,0.37,-9.86,-1.9,0.11,0.11,0.01
110800,0.04,-9.92,-1.43,0.02,0.15,-0.09
110900,0.19,-9.88,-1.44,0.03,0.15,0
111000,0.35,-10.05,-1.16,0.11,0.14,-0.02
111100,-0.07,-9.89,-1.08,0.13,0.19,-0.04
111200,0.18,-9.93,-1.08,0.14,0.15,-0.08
111300,0.19,-9.98,-1.34,0.12,0.14,0.02
111400,0.08,-9.69,-0.83,0.03,0.06,0
111500,0.17,-10.26,-1.42,0,0.15,-0.05
111600,0,-10.17,-0.77,0.14,0.01,-0.02
111700,-0.17,-10.19,-1.35,0.02,0.05,-0.01
111800,-0.34,-9.92,-0.74,0.06,-0.11,0.01
111900,0.27,-9.68,-0.51,0.01,0.01,0.04
112000,-0.16,-10.01,-0.12,-0.03,0.06,-0.01
112100,0.09,-9.94,-0.57,-0.02,0.09,0.01
112200,0.23,-9.92,-0.49,0.01,0.06,0.02
112300,-0.27,-9.98,-0.23,0.03,-0.16,0.01
112400,0.08,-9.92,-0.52,0,0.01,0
112500,-0.14,-9.87,-0.28,0.02,0.03,-0.03
112600,0.15,-10,-0.47,0.03,-0.01,-0.05
112700,-0.04,-9.86,0.17,-0.2,-0.06,-0.1
112800,-0.05,-9.99,-0.27,-0.1,-0.07,-0.06
112900,-0.05,-10.24,-0.31,-0.09,0.01,0
113000,0.59,-9.89,-0.85,-0.22,-0.22,-0.08
113100,0.16,-9.83,-0.33,-0.2,-0.01,-0.06
113200,0.42,-10.02,-0.58,-0.25,-0.03,-0.06
113300,0.22,-9.7,-0.61,-0.11,-0.04,-0.01
113400,0.26,-9.94,-1.01,-0.06,-0.02,0.02
113500,0.82,-9.48,-0.99,-0.2,0.03,-0.11
113600,0.28,-10.13,-1.37,-0.13,-0.2,-0.02
113700,0.23,-10.33,-2.27,-0.18,-0.35,-0.03
113800,-0.01,-10.19,-1.48,-0.1,-0.21,0.03
113900,0.33,-10,-1.38,-0.1,-0.21,0.03
114000,0.64,-9.87,-1.3,-0.05,-0.18,-0.02
114100,0.45,-9.66,-1.53,-0.02,-0.21,-0.07
114200,0.33,-10.07,-1.85,-0.04,-0.16,-0.04
114300,0.37,-10.36,-1.58,-0.18,-0.09,0.05
114400,0.57,-10.08,-1.74,-0.12,-0.13,-0.02
114500,0.51,-9.9,-1.62,-0.09,-0.18,-0.04
114600,0.54,-9.97,-2.18,-0.06,-0.12,0
114700,0.49,-9.92,-2.36,-0.07,-0.11,0.01
114800,0.69,-9.85,-2.29,-0.05,-0.09,-0.02
114900,0.65,-9.68,-2.27,-0.05,-0.17,-0.06
115000,0.36,-9.98,-2.35,-0.04,-0.11,-0.05
115100,0.54,-10.13,-2.56,-0.09,-0.16,-0.01
115200,0.38,-9.72,-1.7,-0.06,-0.11,0.05
115300,0.23,-9.87,-2,-0.04,-0.12,0.02
115400,0.62,-9.72,-2.76,-0.09,-0.18,0.02
115500,0.75,-9.89,-2.29,0,-0.06,0.04
115600,0.49,-9.86,-2.21,-0.03,-0.1,-0.03
115700,0.41,-9.87,-2.38,0.03,-0.06,-0.04
115800,0.17,-10.03,-2.29,-0.06,-0.13,-0.06
115900,0.54,-10.11,-2.63,0,-0.09,0
116000,0.44,-10.04,-2.18,-0.02,-0.08,0.02
116100,0.48,-9.89,-2.3,-0.07,-0.01,0.04
116200,0.55,-10.11,-2.45,-0.03,0.02,0.03
116300,0.63,-9.69,-3.23,0.05,0.09,0.04
116400,0.39,-9.84,-2.27,-0.01,-0.04,-0.06
116500,0.45,-9.86,-2.19,0.03,-0.08,0.03
116600,0.39,-9.87,-2.06,-0.02,-0.02,0.03
116700,0.43,-9.79,-2.11,0,-0.03,0.06
116800,0.36,-9.9,-2.12,-0.04,0.06,-0.03
116900,-0.01,-10.06,-2.17,-0.03,-0.01,0.01
117000,0.33,-10.03,-2.23,-0.05,0.03,0.04
117100,0.5,-9.89,-2.09,-0.04,0.1,0.02
117200,0.41,-9.68,-1.91,-0.02,-0.01,-0.01
117300,0.18,-9.95,-1.93,-0.02,0.01,0.04
117400,0.59,-9.94,-2.56,-0.04,0.03,0.01
117500,0.61,-9.56,-1.8,-0.04,0.09,0.03
117600,0.58,-9.71,-1.87,-0.02,0.19,-0.02
117700,0.06,-10.24,-1.85,-0.04,0.11,-0.05
117800,0.34,-9.96,-2.49,-0.06,0.09,0.13
117900,0.23,-9.84,-1.64,-0.13,0.16,-0.01
118000,0.43,-9.98,-2.07,0.07,0.22,-0.06
118100,0.47,-10.04,-2.55,-0.11,0.24,0
118200,0.71,-9.94,-2.58,-0.03,0.13,0.03
118300,0.51,-9.71,-2.11,-0.02,0.12,0.02
118400,0.27,-9.49,-1.84,0.08,0.18,-0.02
118500,0.57,-9.85,-2.41,0.02,0.16,-0.04
118600,0.58,-9.75,-2.48,0.04,0.1,-0.04
118700,0.52,-9.9,-1.47,0.01,0.14,0.01
118800,0.67,-10.21,-2.14,-0.04,0.12,0.04
118900,0.42,-9.97,-1.72,0.02,0.24,0.03
119000,0.39,-9.88,-2.09,-0.02,0.19,0.06
119100,0.58,-9.96,-1.88,-0.1,0.17,0
119200,0.55,-9.55,-2.16,0.18,0.07,0
119300,0.31,-9.87,-1.6,-0.03,0.15,0.05
119400,0.34,-9.96,-1.89,0,0.19,0.07
119500,0.43,-9.88,-1.34,0.23,-0.01,0
119600,0.34,-9.89,-1.31,0.12,0.11,0.02
119700,0.59,-9.77,-1.23,0.11,0.13,0
119800,0.4,-9.67,-1.44,0.1,0.13,0
119900,0.24,-10.13,-0.98,0.03,0.18,-0.05
120000,0.32,-9.87,-1.31,0.05,0.13,0.03
120100,0.21,-9.8,-0.73,0.1,0.14,0.02
120200,0.58,-9.77,-0.58,0.28,0.28,0.09
120300,0.15,-10.21,-1.08,-0.02,0.23,-0.03
120400,0.18,-10.21,-1.12,0.1,-0.02,0
120500,-0.09,-10.18,-0.09,0.04,-0.16,0.23
120600,-0.07,-9.8,-0.16,0.1,0.18,0
120700,0.01,-9.83,-0.12,0.09,0.13,-0.06
120800,-0.15,-10.23,-0.84,0.01,-0.14,0.04
120900,-0.31,-9.7,0.59,-0.23,-0.05,-0.06
