timestamp,accX,accY,accZ,anvX,anvY,anvZ
0,-0.44,-9.62,-1.16,0.12,-0.19,-0.03
100,-1.03,-9.75,-1.56,0.12,-0.49,-0.08
200,-0.36,-10.29,-1.4,-0.04,-0.32,0.01
300,-0.92,-10.42,-1.57,-0.07,0.06,0
400,-0.52,-10.03,-1.68,-0.15,-0.06,0.02
500,-0.55,-9.58,-1.08,-0.05,-0.01,0.07
600,-0.68,-9.74,-0.52,0.09,0.08,0.19
700,-1.17,-9.89,-0.85,0.08,0.24,0.18
800,-1.53,-10.07,-0.83,0.05,0.11,0.19
900,-1.62,-9.76,-1.17,-0.07,0.66,0.18
1000,-1.41,-9.85,-1.35,-0.11,0.16,0.21
1100,-1.37,-9.8,-1.34,0.06,0.15,0.14
1200,-1.85,-9.69,-1.41,0.1,0.29,0.05
1300,-2.01,-9.63,-1.38,0.01,-0.06,0.02
1400,-1.59,-9.48,-0.86,0.05,0.02,-0.02
1500,-1.92,-9.68,-0.93,0.14,0.22,-0.01
1600,-1.97,-9.57,-0.88,-0.02,0.11,-0.05
1700,-1.94,-9.5,-1.08,0,0.09,-0.18
1800,-2.12,-9.98,-1.28,-0.07,-0.24,-0.13
1900,-1.73,-9.79,-0.6,0,-0.12,-0.15
2000,-1.6,-10.02,-0.97,-0.1,-0.23,-0.05
2100,-1.12,-9.85,-0.73,-0.07,-0.18,-0.07
2200,-1.03,-9.74,-0.74,0.05,0.04,-0.16
2300,-1.09,-9.75,-1.16,0,0.01,-0.05
2400,-1.02,-9.6,-0.68,-0.03,0.07,-0.15
2500,-1.57,-9.86,-0.67,-0.07,-0.03,-0.11
2600,-0.85,-9.79,-0.51,-0.03,-0.08,-0.09
2700,-0.77,-9.91,-0.52,0.01,-0.19,-0.2
2800,-0.37,-10.09,-1.29,-0.02,-0.13,-0.08
2900,-0.31,-9.78,-0.41,-0.02,-0.08,-0.11
3000,-0.61,-9.71,0.04,0.13,0.12,-0.08
3100,-1.3,-9.8,-0.26,0.07,0.11,0.08
3200,-0.79,-10.01,-0.35,-0.01,0.09,0.15
3300,-0.47,-9.49,-0.21,0.08,0.37,0.04
3400,-0.12,-9.89,-0.97,0.01,0.2,0.19
3500,-0.72,-9.9,-0.27,-0.05,0.02,0.15
3600,-0.76,-9.95,0.18,-0.01,0.16,0.25
3700,-1.2,-9.62,0.14,0.1,0.56,0.13
3800,-1.57,-9.67,-0.17,-0.15,0.29,0.22
3900,-1.66,-9.73,-0.02,-0.1,0.12,0.29
4000,-2.04,-9.22,-0.48,0.08,0.35,0.34
4100,-2.29,-9.07,-0.28,0.03,0.16,0.28
4200,-2.34,-9.19,-0.17,0.1,0.39,0.25
4300,-2.71,-9.27,0.04,0.13,-0.29,0.01
4400,-2.32,-9.31,-0.13,0.36,0.15,0.03
4500,-2.28,-9.1,0.37,0.11,0.09,-0.17
4600,-1.83,-9.62,-0.21,0.04,-0.16,-0.16
4700,-1.59,-9.56,-0.13,-0.21,-0.36,-0.38
4800,-1.49,-9.73,1.08,-0.16,-0.05,-0.41
4900,-0.6,-9.29,0.74,-0.03,0.4,-0.3
5000,-0.85,-9.3,0.08,-0.07,0.21,-0.14
5100,-0.21,-10.03,0.7,-0.08,0.12,-0.14
5200,-0.44,-9.74,0.93,0.03,-0.03,-0.17
5300,-0.67,-10.05,0.49,-0.01,-0.17,-0.17
5400,0.11,-9.92,0.06,-0.1,-0.4,-0.15
5500,-0.35,-10.01,0.58,0.03,-0.16,-0.07
5600,0.59,-10.51,-0.24,-0.16,-0.32,-0.08
5700,0.45,-9.7,0.03,-0.18,-0.26,-0.09
5800,0.37,-9.97,-0.01,-0.09,-0.33,-0.22
5900,0.85,-9.68,0.26,0.04,0.21,0.06
6000,1.7,-9.99,-0.49,-0.09,0.37,0.07
6100,0.18,-10.41,0.5,0.1,0.84,0.23
6200,-0.18,-10.53,-0.38,0.07,0.78,0.24
6300,-0.21,-9.82,0.41,-0.24,0.24,0.27
6400,0.26,-9.62,-0.05,-0.03,0.26,0.32
6500,-0.64,-9.9,0.39,0.1,0.34,0.25
6600,-1.05,-9.76,0.14,0.11,0,0.37
6700,-2.08,-9.34,0.05,0,0.37,0.22
6800,-1.97,-9.38,0.78,0.14,0.27,0.22
6900,-1.67,-9.47,0.35,0.14,-0.08,0.05
7000,-1.53,-9.17,0.39,0.14,-0.02,0.03
7100,-2.3,-9.88,0.39,0.11,0.09,0.08
7200,-2.03,-9.92,0.64,0.09,0.08,0.01
7300,-1.54,-9.53,0.73,0.04,0.02,-0.06
7400,-1.52,-9.53,0.72,0.04,0.15,-0.1
7500,-1.16,-9.48,0.19,0.09,0.06,-0.18
7600,-1.08,-9.58,0.91,-0.04,-0.32,-0.19
7700,-0.39,-9.76,0.61,0.05,-0.47,-0.44
7800,0.06,-9.28,1.55,-0.03,-0.18,-0.44
7900,0.25,-9.56,1.02,0.1,0.05,-0.42
8000,0.34,-9.53,0.26,-0.01,-0.22,-0.25
8100,0.49,-9.91,0.23,-0.35,-0.15,-0.13
8200,1.21,-9.72,0.79,-0.18,-0.16,0
8300,0.67,-9.54,1,-0.15,-0.29,0.13
8400,0.52,-9.56,0.62,0.02,-0.05,0.17
8500,0.12,-10.31,-0.52,0.06,0.08,0.09
8600,-0.21,-10.28,-0.25,-0.03,0.13,0.17
8700,-0.23,-9.99,0,-0.21,0.15,0.16
8800,0.05,-9.47,0.5,-0.13,0.11,0.45
8900,-0.75,-9.77,0.3,0.1,0.18,0.24
9000,-0.99,-10.01,-0.84,0,-0.07,0.27
9100,-1.74,-9.58,-0.1,-0.05,0.07,0.3
9200,-1.75,-9.93,-0.34,-0.14,0.07,0.42
9300,-2.03,-9.49,-0.27,-0.12,0.05,0.22
9400,-2.27,-9.4,-0.94,-0.07,-0.2,0.3
9500,-2.65,-9.45,-0.68,-0.1,0.02,0.28
9600,-2.83,-9,-0.68,0.06,-0.34,0.44
9700,-2.59,-9.28,-0.69,-0.19,-0.27,0.09
9800,-2.55,-9.2,-0.19,-0.17,-0.09,0
9900,-1.95,-8.83,-0.2,-0.26,-0.25,-0.06
10000,-2.07,-9.09,0.09,-0.15,-0.25,-0.22
10100,-2.31,-9.49,-0.52,0.03,-0.21,-0.32
10200,-2.7,-10.26,-0.93,-0.08,-0.1,-0.37
10300,-2.33,-10.24,-1.13,-0.12,-0.23,-0.11
10400,-1.73,-10.16,-0.83,-0.05,0.13,-0.28
10500,-1.4,-10.09,-1,-0.02,0.09,-0.13
10600,-1.55,-9.94,-0.98,-0.07,-0.02,-0.21
10700,-0.96,-9.9,-0.34,0.1,0.22,-0.12
10800,-0.5,-10.02,-0.76,-0.01,0.43,-0.28
10900,-0.88,-9.86,-0.7,-0.12,0.2,-0.13
11000,-0.8,-10.14,-0.56,-0.04,0.22,-0.1
11100,-0.37,-9.76,-0.61,0.02,-0.09,0.05
11200,-0.68,-10.04,-0.94,-0.04,-0.17,0.04
11300,-0.98,-10.19,-1.13,-0.04,-0.26,0.2
11400,-1.28,-9.81,-0.36,-0.14,-0.36,0.26
11500,-0.66,-9.27,-0.11,-0.07,-0.1,0.5
11600,-0.81,-9.21,-0.1,0.02,0.1,0.23
11700,-1.72,-9.75,-0.17,0.09,0.07,0.22
11800,-1.43,-9.57,-1.22,0.02,0.1,0.12
11900,-2.38,-9.99,-0.83,0.14,0.27,0.26
12000,-2.21,-9.29,-0.53,-0.07,0.2,0.15
12100,-2.43,-9.02,-0.17,0.06,0.23,0.18
12200,-2.8,-9.15,-0.82,0.04,0.17,0.16
12300,-2.92,-9.39,-1.29,-0.12,0.19,0.04
12400,-2.97,-9.32,-1.5,-0.11,-0.04,0.01
12500,-2.78,-9.61,-1.62,-0.11,-0.04,-0.02
12600,-2.56,-9.31,-1.28,-0.08,-0.03,-0.08
12700,-2.58,-9.52,-1.46,-0.22,0.06,-0.33
12800,-2.02,-9.47,-1.66,-0.05,-0.05,-0.31
12900,-1.9,-9.54,-0.97,-0.17,-0.33,-0.33
13000,-1.58,-9.87,-1.24,0.03,-0.24,-0.31
13100,-1.64,-9.9,-1.41,0.03,-0.22,-0.14
13200,-0.96,-9.79,-1.28,0,0.08,-0.2
13300,-1.24,-9.96,-1.36,-0.21,-0.15,-0.31
13400,-0.59,-9.69,-1.63,-0.2,-0.53,0
13500,-0.71,-9.85,-1.46,-0.27,0,-0.15
13600,-1.33,-9.56,-1.8,-0.29,-0.23,-0.26
13700,-0.7,-9.79,-2.05,-0.2,-0.2,-0.08
13800,-0.69,-10.05,-2.58,-0.09,-0.08,-0.01
13900,-1.43,-10.15,-2.74,-0.1,-0.32,0.17
14000,-1.02,-9.87,-2.61,-0.12,-0.14,0.33
14100,-1.95,-9.76,-1.44,0.06,0.14,0.31
14200,-0.44,-9.44,-1.93,0.01,0.46,-0.11
14300,-1,-9.7,-1.98,-0.05,0.26,0.14
14400,-1.49,-9.52,-1.68,0.2,0.39,0.33
14500,-0.89,-9.58,-2.79,0.05,0.38,0.09
14600,-2.25,-9.39,-2.34,-0.09,0.11,0.25
14700,-1.89,-9.73,-2.85,0.15,0.09,0.23
14800,-2.52,-9.7,-3,-0.04,-0.03,0.05
14900,-2.61,-9.45,-3.06,-0.13,0.04,0.11
15000,-2.47,-9.52,-2.93,-0.14,-0.13,0.2
15100,-2.43,-9.22,-2.79,-0.12,-0.17,0.04
15200,-2.54,-9.25,-2.77,-0.14,-0.52,-0.08
15300,-2.59,-9.29,-2.42,-0.21,-0.19,-0.15
15400,-2.67,-9.06,-2.59,-0.17,-0.23,-0.16
15500,-2.63,-9.59,-2.6,-0.1,-0.13,-0.32
15600,-2.48,-9.45,-3.05,-0.01,0.14,-0.2
15700,-1.94,-9.6,-2.93,-0.11,-0.08,-0.24
15800,-2.06,-9.59,-2.91,-0.22,0.46,-0.14
15900,-1.55,-9.17,-2.43,-0.09,0.32,-0.08
16000,-1.17,-9.59,-2.88,-0.04,-0.18,-0.02
16100,-1.19,-10.01,-3.4,-0.1,0.04,-0.17
16200,-1.5,-9.72,-4.65,-0.09,-0.28,0.07
16300,-0.56,-9.59,-2.63,0.12,0.14,-0.33
16400,-0.56,-9.66,-2.96,0.17,-0.01,0.05
16500,-0.36,-9.8,-2.04,0.3,0.23,0.07
16600,-0.64,-9.93,-3.23,0.15,0.24,0.21
16700,-1.73,-10.03,-2.37,0.15,-0.1,0.43
16800,-1.89,-9.72,-1.75,0.04,-0.18,0.4
16900,-1.44,-9.96,-2.36,-0.01,0.19,0.09
17000,-1.64,-9.91,-1.97,0.01,0.07,0.34
17100,-1.91,-9.68,-1.66,-0.03,-0.18,0.24
17200,-2.16,-9.3,-1.61,0.04,0.27,0.36
17300,-1.98,-9.79,-2.07,0.02,0.28,0.07
17400,-1.2,-9.61,-2.24,0.23,0.19,0.4
17500,-1.87,-9.59,-2.05,0.22,0.26,0.12
17600,-2.81,-9.69,-2.37,0.05,0,-0.08
17700,-2.21,-9.57,-2.27,0.01,-0.1,-0.12
17800,-1.85,-9.6,-1.67,-0.06,-0.24,-0.34
17900,-1.31,-9.47,-1.55,-0.01,-0.01,-0.3
18000,-1.74,-9.68,-1.17,0.02,0.2,-0.12
18100,-1.61,-9.7,-1.25,0.04,0.09,-0.2
18200,-1.04,-9.67,-0.98,0.06,-0.09,-0.2
18300,-1.13,-9.76,-1.1,0.06,0.3,-0.3
18400,-0.89,-9.48,-1.1,-0.05,-0.2,-0.06
18500,-0.74,-9.98,-1.24,0,0.03,-0.21
18600,-0.92,-9.79,-1.46,-0.01,0.01,-0.13
18700,-1.01,-9.82,-1.07,0,-0.08,-0.05
18800,-1.27,-10.1,-1.08,0.03,0.04,0.1
18900,-1,-10.13,-1.38,0.02,-0.06,0.14
19000,-0.94,-10.21,-1.12,-0.01,0.01,0.14
19100,-1.66,-9.87,-1.13,-0.1,0.35,0.15
19200,-0.89,-9.9,-0.98,-0.06,0.32,0.24
19300,-1.03,-9.97,-1.42,-0.1,0.19,0.13
19400,-1.13,-9.72,-0.89,0.13,0.33,0.25
19500,-1.92,-9.77,-1.4,0.07,0.3,0.28
19600,-1.84,-9.92,-1.68,-0.02,0.28,0.05
19700,-2.11,-9.73,-1.63,0.03,0.02,0.12
19800,-2.35,-9.64,-1.49,-0.04,0.07,0.16
19900,-2.11,-9.22,-0.84,-0.04,0.04,0.14
20000,-2.05,-9.17,-0.86,0.15,0.01,0.04
20100,-2.61,-9.49,-1.14,0.22,0.04,-0.14
20200,-2.49,-9.42,-1.1,0.04,0.01,-0.16
20300,-2.23,-9.5,-0.8,0.03,-0.09,-0.21
20400,-1.56,-9.64,-1.07,0.02,-0.18,-0.29
20500,-1.53,-9.63,-0.7,-0.06,-0.32,-0.39
20600,-1.17,-9.37,-0.47,0,-0.21,-0.13
20700,-1.47,-10.17,-0.78,0.07,-0.21,-0.25
20800,-0.64,-9.74,-0.09,-0.01,-0.05,-0.09
20900,-0.36,-9.07,0.28,0.11,-0.13,-0.06
21000,-0.43,-10,-0.58,0.13,-0.05,-0.31
21100,-0.02,-10.4,-0.63,0.12,-0.08,-0.07
21200,-0.13,-9.65,-0.04,0.05,0.07,0.01
21300,0.17,-9.92,-0.11,0.14,0.2,0
21400,0.34,-9.78,-0.68,0.21,-0.03,0.04
21500,-0.07,-10.46,-0.41,0.13,-0.02,0.08
21600,-0.76,-10.15,-0.07,-0.11,-0.28,0.17
21700,-0.09,-9.47,1.07,0.04,0.35,0.3
21800,-0.56,-9.36,0.9,0.24,0.38,0.48
21900,-0.99,-9.67,0.62,-0.12,0.05,0.18
22000,-1.63,-9.63,-0.45,0.01,0.25,0.16
22100,-2.08,-9.84,0.15,-0.14,0,0.36
22200,-1.66,-9.33,0.79,-0.14,0.14,0.54
22300,-2.11,-9.11,0.66,0.07,-0.41,0.21
22400,-2.83,-9.14,0.53,0.07,0.12,0.15
22500,-2.3,-8.79,0.55,0.16,0.28,0.03
22600,-2.89,-9.44,0.49,0.14,0.02,-0.04
22700,-2.63,-8.81,0.61,0.21,0.14,-0.12
22800,-2.69,-9.17,1.03,0.12,-0.05,-0.42
22900,-2.53,-9.47,0.73,0.08,-0.34,-0.37
23000,-1.41,-8.95,1.6,0.15,0.01,-0.36
23100,-0.93,-9.23,1.96,0.12,0.01,-0.35
23200,-0.61,-9.42,1.81,0.08,0.31,-0.38
23300,-0.15,-8.92,2.21,-0.1,-0.09,-0.35
23400,-0.11,-9.37,1.87,-0.01,-0.01,-0.37
23500,-0.23,-9.63,0.87,-0.16,-0.19,-0.31
23600,0.67,-9.57,0.14,-0.41,-0.67,-0.36
23700,-0.01,-9.79,1.66,-0.1,-0.24,-0.02
23800,-0.33,-10.07,0.76,0.05,0.11,0.2
23900,0.06,-10.46,-0.1,0.2,0.32,0.42
24000,0.18,-9.66,1.14,-0.12,0.02,0.19
24100,-0.67,-9.58,1.92,0.2,0.26,0.49
24200,-0.44,-9.45,0.62,-0.03,0.15,0.05
24300,-0.44,-9.76,0.22,0.15,0.26,0.36
24400,-1.65,-10.07,0.72,0.01,0.05,0.4
24500,-1.73,-9.64,0.14,-0.1,-0.12,0.36
24600,-2.4,-8.89,1.35,-0.14,0.1,0.18
24700,-1.66,-9.04,1.01,-0.22,0.22,0.1
24800,-1.8,-8.87,0.28,-0.11,0.03,0.29
24900,-3.25,-9.72,-0.38,-0.27,-0.16,0.14
25000,-3.24,-9.76,-0.84,-0.43,-0.33,0.17
25100,-2.49,-9.01,0.25,-0.38,-0.52,-0.02
25200,-2.48,-9.05,1.09,-0.12,-0.1,-0.26
25300,-1.88,-9.14,0.21,0.08,-0.12,-0.32
25400,-1.98,-9.58,-0.09,0.07,0.03,-0.38
25500,-1.74,-9.54,-0.1,0.17,-0.13,-0.31
25600,-1.18,-9.62,-0.07,0.19,-0.09,-0.45
25700,-0.94,-9.69,0.31,0.04,0.08,-0.34
25800,-0.88,-9.76,0.23,-0.03,0.14,-0.41
25900,-0.62,-9.56,0.06,-0.08,0.17,-0.29
26000,-0.15,-10,0.29,0.04,0.04,-0.16
26100,0.03,-10.03,-0.78,-0.03,0.01,-0.24
26200,-0.34,-10.03,-0.83,-0.24,-0.32,-0.03
26300,-0.48,-10,-0.17,-0.19,-0.62,0.25
26400,-0.19,-9.84,-0.45,-0.19,-0.19,0.26
26500,0.05,-9.6,0.27,-0.23,-0.11,0.27
26600,-0.28,-9.55,-0.26,0,-0.05,0.36
26700,-1.13,-9.86,-0.06,0.03,0.2,0.15
26800,-1.6,-10.33,-1.46,-0.17,0.25,0.26
26900,-1.14,-9.89,-0.92,-0.18,0.01,0.45
27000,-1.97,-9.36,-0.65,-0.14,0.01,0.36
27100,-1.79,-9.08,-0.08,-0.05,0.33,0.25
27200,-2.27,-9.04,-0.74,0.07,0.22,0.33
27300,-3,-9.42,-0.93,0.07,0.09,0.09
27400,-3.27,-9.31,-1.57,-0.18,-0.08,0.12
27500,-3.27,-9.42,-1.69,-0.21,-0.24,0.01
27600,-3,-9.35,-1.47,-0.36,-0.27,-0.26
27700,-2.98,-9.58,-1.64,-0.09,-0.33,-0.01
27800,-2.81,-9.58,-1.75,0.04,0.2,-0.24
27900,-2.62,-9.88,-2.06,-0.09,-0.27,-0.17
28000,-2.39,-10,-1.71,-0.14,-0.17,-0.33
28100,-1.7,-10.14,-1.29,-0.04,-0.35,-0.31
28200,-1.09,-9.79,-1.04,-0.04,-0.12,-0.4
28300,-1.33,-9.77,-1.2,0.01,0.13,-0.37
28400,-0.85,-10.04,-0.75,-0.13,-0.21,-0.21
28500,-1.01,-9.59,-0.88,-0.13,0.06,-0.14
28600,-0.67,-10.03,-1.87,-0.01,0.05,-0.02
28700,-0.49,-9.99,-2,-0.14,-0.06,0.01
28800,-0.09,-9.86,-2.42,-0.21,-0.21,-0.13
28900,-0.62,-9.75,-1.39,-0.33,-0.19,0.13
29000,-0.74,-9.6,-1.83,-0.15,0.24,0.02
29100,-0.46,-9.9,-2.12,0.03,0.25,0.01
29200,-0.32,-10.24,-3,0.23,0.22,0.07
29300,-0.41,-10.45,-3.29,0.05,-0.18,0.44
29400,-0.38,-9.79,-2.77,0.05,0.19,0.34
29500,-0.62,-9.57,-2.37,0.04,0.24,0.57
29600,-1.83,-9.51,-1.96,0.12,0.39,0.48
29700,-2.19,-9.75,-2.87,0.04,0.2,0.6
29800,-2.39,-9.54,-2.73,-0.2,0.05,0.32
29900,-2.49,-9.27,-3.01,-0.34,0.11,-0.09
30000,-2.41,-9.09,-3.01,-0.43,-0.12,0.14
30100,-2.81,-9.11,-2.83,-0.29,-0.22,0
30200,-2.86,-8.89,-2.34,-0.1,-0.03,-0.23
30300,-2.67,-9.43,-2.82,-0.09,-0.22,-0.28
30400,-2.65,-9.46,-3.24,-0.12,-0.09,-0.3
30500,-1.9,-9.73,-3.63,-0.18,-0.3,-0.3
30600,-1.58,-9.65,-3.41,-0.12,-0.31,-0.25
30700,-1.7,-9.62,-2.67,-0.02,-0.48,-0.1
30800,-1.81,-9.87,-3.17,0.01,-0.23,-0.18
30900,-0.67,-9.43,-2.82,0.14,0.5,-0.28
31000,-0.6,-9.74,-3.21,0.08,0.02,-0.4
31100,-1.6,-10.35,-2.91,0.06,-0.5,-0.63
31200,-0.27,-9.99,-2.7,0.3,0,-0.06
31300,0.32,-9.82,-2.72,0.21,0.32,-0.04
31400,0.26,-10.26,-2.81,0.16,-0.01,0.15
31500,-0.04,-10.3,-3.01,0.1,0.08,0.31
31600,0.45,-10.08,-2.74,-0.12,0.26,0.26
31700,-0.24,-9.95,-2.45,-0.14,0.09,0.47
31800,-0.66,-9.84,-2.19,0.01,0.27,0.63
31900,-0.54,-10.3,-2.98,-0.04,-0.14,0.44
32000,-1.57,-9.58,-2.81,0.12,0.44,0.62
32100,-1.53,-9.8,-2.22,0.01,0.53,0.55
32200,-1.65,-9,-1.88,0.01,0.27,0.44
32300,-1.71,-9.1,-2.19,0.19,0.38,0.15
32400,-2.69,-9.03,-2.06,0.22,0.27,-0.14
32500,-2.71,-9.37,-2.1,0.22,0.03,-0.14
32600,-2.31,-9.59,-1.21,0.2,-0.08,-0.26
32700,-1.98,-9.98,-1.57,0.17,-0.02,-0.53
32800,-1.68,-10.24,-1.54,-0.08,-0.25,-0.59
32900,-1.24,-10.32,-1.41,-0.13,-0.35,-0.61
33000,-0.32,-10.12,-0.99,-0.12,-0.56,-0.17
33100,0.24,-9.75,-0.45,-0.07,-0.07,-0.1
33200,-0.06,-9.58,-0.14,0.02,0.11,0.01
33300,-0.61,-9.81,0.08,0.11,0.23,0.07
33400,-0.07,-10.01,-0.59,-0.01,0.2,0.02
33500,-0.05,-10.28,-0.31,-0.01,-0.09,0.14
33600,-0.52,-10.27,-0.78,-0.02,0.11,0.33
33700,-0.12,-9.97,-0.59,-0.18,0.16,0.28
33800,-0.35,-9.65,0.23,-0.12,0.48,0.41
33900,-0.82,-9.71,-0.21,0.19,0.42,0.24
34000,-1.39,-9.94,-1.01,0.02,0.35,0.25
34100,-1.1,-10.3,-1.34,-0.19,0.06,0.05
34200,-1.13,-9.56,-1.37,-0.2,-0.06,0.24
34300,-1.61,-9.24,-0.77,0.06,0.28,0.32
34400,-2.32,-9.43,-0.87,0.15,0.53,0.47
34500,-3.22,-9.47,-0.8,0.08,0.12,0.29
34600,-2.71,-9.21,-0.59,-0.03,0.03,0.13
34700,-2.87,-9.13,-0.95,0.21,0.24,0.03
34800,-3.32,-9.44,-1.26,0.15,0,0.05
34900,-3.25,-9.04,-0.64,0.11,0.14,-0.03
35000,-2.86,-8.75,-0.38,0.19,0.14,0.06
35100,-2.68,-9.14,-0.1,0.18,-0.06,-0.09
35200,-2.9,-9.52,-0.35,0.09,-0.14,-0.15
35300,-1.89,-9.12,0.15,0.26,0.02,-0.31
35400,-2.12,-9.83,-0.1,0.2,-0.22,-0.61
35500,-1.41,-9.45,1.25,0.07,-0.2,-0.36
35600,-1.19,-9.84,0.62,-0.06,-0.3,-0.32
35700,-0.7,-9.63,0.59,0.06,0.09,-0.27
35800,-0.1,-10.01,-0.41,-0.22,-0.33,-0.24
35900,-0.07,-10.3,-0.11,-0.31,-0.39,-0.1
36000,-0.52,-10.31,-0.41,-0.76,-0.03,-0.2
36100,0.6,-9.57,0.64,-0.34,-0.28,-0.1
36200,0.11,-10.06,0.21,-0.09,-0.08,0.29
36300,0.21,-10.03,-0.88,-0.21,-0.12,0.1
36400,-0.15,-10.25,-1.42,-0.25,-0.15,0.25
36500,-0.35,-10.19,-0.79,-0.12,-0.14,0.4
36600,-1.07,-9.96,-0.26,-0.09,0.03,0.43
36700,-0.96,-9.75,-0.72,-0.05,0.28,0.36
36800,-1.34,-9.89,-0.35,-0.22,-0.18,0.22
36900,-1.5,-9.9,-0.5,-0.27,-0.54,0.42
37000,-1.86,-9.18,-1.01,-0.07,0.04,0.41
37100,-2.27,-9.32,-1.12,-0.16,0.07,0.22
37200,-2.41,-9.47,-1.21,-0.29,-0.19,0.2
37300,-2.81,-8.81,-0.38,-0.38,-0.09,0.09
37400,-2.14,-9.17,-0.7,-0.18,0.01,-0.03
37500,-2.32,-8.95,-0.74,-0.11,-0.22,-0.09
37600,-2.34,-9.07,-0.66,-0.02,-0.03,-0.24
37700,-1.79,-9.18,-0.92,-0.01,-0.12,-0.22
37800,-1.93,-9.27,-0.71,0.02,-0.03,-0.3
37900,-1.73,-9.36,-0.98,0.03,-0.18,-0.32
38000,-1.58,-9.86,-1.03,0.05,0.04,-0.49
38100,-1.21,-9.83,-1.77,-0.11,0.04,-0.41
38200,-1.26,-10.35,-1.6,-0.04,-0.22,-0.24
38300,-0.92,-10.25,-1.69,-0.08,0.12,-0.32
38400,-0.28,-9.9,-1.54,-0.21,0,-0.25
38500,-0.13,-10.12,-1.5,-0.08,-0.25,-0.1
38600,-0.06,-9.77,-1.34,-0.06,-0.13,-0.05
38700,0.9,-9.72,-1.64,-0.1,-0.12,-0.06
38800,-0.13,-9.9,-1.55,-0.01,-0.12,-0.04
38900,-0.14,-10.06,-2.27,-0.17,-0.13,0.08
39000,-0.15,-10.32,-2.34,-0.1,-0.18,0.16
39100,0.28,-9.84,-2.35,-0.16,-0.03,0.12
39200,-0.5,-9.76,-2.03,-0.02,0.15,0.45
39300,-0.22,-9.6,-1.7,0.09,0.23,0.39
39400,-0.86,-9.63,-1.82,0.05,0.22,0.1
39500,-0.61,-9.9,-2.39,0.12,0.4,0.31
39600,-1.23,-10.01,-2.82,0.05,0.33,0.41
39700,-0.9,-9.72,-2.27,-0.27,0.04,0.29
39800,-2.16,-9.53,-1.6,0.08,0.25,0.39
39900,-2.63,-9.5,-2.16,0.16,0.28,0.14
40000,-2.36,-9.57,-2.34,0,-0.08,0.16
40100,-2.58,-9.43,-2.33,0,0,0.11
40200,-2.83,-9.33,-2.03,-0.04,0.11,0.08
40300,-2.71,-8.92,-2.05,-0.31,-0.18,0.17
40400,-2.91,-8.85,-1.72,-0.21,-0.17,0.03
40500,-2.66,-9.3,-2.45,-0.16,-0.12,-0.14
40600,-2.79,-9.42,-3.03,-0.08,-0.05,-0.18
40700,-2.32,-9.36,-2.91,-0.19,-0.18,-0.14
40800,-2.49,-9.32,-2.55,-0.04,-0.2,-0.3
40900,-2.17,-9.42,-2.4,0.01,-0.23,-0.28
41000,-1.45,-9.81,-2.66,-0.08,-0.1,-0.36
41100,-1.48,-9.96,-2.61,-0.16,-0.09,-0.27
41200,-1.56,-9.95,-2.31,0,0.15,-0.3
41300,-1.06,-9.94,-2.84,0,0.16,-0.23
41400,-0.77,-9.76,-2.81,-0.13,-0.15,-0.2
41500,-0.22,-9.81,-2.82,-0.23,-0.12,-0.15
41600,-0.5,-9.55,-3.14,-0.14,-0.23,-0.06
41700,-0.41,-9.56,-3.17,-0.08,-0.31,0
41800,-0.85,-9.51,-3.57,0,-0.48,-0.04
41900,-0.61,-9.42,-2.87,-0.1,-0.23,0.13
42000,-1.86,-9.86,-2.99,0.02,0.21,0.26
42100,-0.91,-9.62,-3.12,-0.06,0.24,0.03
42200,-1.72,-9.84,-3.27,0.04,0.22,0.16
42300,-1.52,-9.9,-3.72,0,0.25,0.37
42400,-1.57,-9.4,-3.45,0.01,0.13,0.23
42500,-1.97,-9.44,-3.26,-0.01,-0.07,0.21
42600,-1.81,-9.34,-3.83,0.14,0.33,0.29
42700,-2.06,-9.36,-3.45,0.05,0.04,0.21
42800,-2.65,-9.17,-3.22,0.22,0.12,0.24
42900,-2.59,-9.13,-3.24,0.13,0.29,0.04
43000,-2.78,-9.28,-3.2,0.09,0.18,-0.04
43100,-3.03,-9.49,-3.91,0.06,0.06,-0.17
43200,-2.7,-9.21,-3.49,-0.19,0.08,-0.24
43300,-2.76,-9.7,-3.41,-0.04,-0.07,-0.15
43400,-2.1,-9.32,-3.28,-0.07,-0.02,-0.02
43500,-1.78,-9.3,-2.98,-0.09,-0.07,-0.03
43600,-2.07,-9.35,-3.29,-0.07,-0.13,-0.16
43700,-2.29,-9.46,-3.04,-0.11,-0.16,-0.19
43800,-1.62,-9.61,-3.02,-0.02,-0.18,-0.13
43900,-1.51,-9.43,-2.93,-0.05,-0.04,-0.2
44000,-1.58,-9.55,-2.78,0.01,-0.09,-0.23
44100,-1.47,-9.61,-2.67,0.1,0.07,-0.26
44200,-1.14,-9.47,-2.27,0.02,-0.06,-0.17
44300,-0.34,-9.67,-2.46,0.04,-0.04,-0.21
44400,-0.7,-9.81,-2.63,0.05,-0.18,-0.24
44500,-0.59,-9.91,-2.48,0.09,-0.17,-0.13
44600,-0.09,-9.85,-2.21,0.03,-0.26,-0.13
44700,-0.38,-10,-2.22,0.13,-0.04,-0.12
44800,-0.48,-10.1,-2.08,0.22,0.02,-0.21
44900,-0.28,-10.14,-1.73,0.11,0.09,-0.06
45000,-0.28,-10.16,-1.93,-0.03,0.05,0.1
45100,-0.19,-9.85,-1.7,-0.06,0.17,0.15
45200,-0.45,-9.62,-1.54,-0.24,0.02,0.2
45300,-0.1,-9.44,-1.35,-0.24,-0.18,0.15
45400,-0.77,-9.54,-0.59,0.14,0.3,0.53
45500,-1.35,-9.78,-1.14,0.1,0.33,0.26
45600,-1.98,-10.2,-2.04,0.05,0.22,0.02
45700,-1.7,-10.08,-2.53,-0.06,0.2,0.36
45800,-2.22,-9.82,-1.94,-0.01,0.1,0.46
45900,-2.61,-9.73,-1.79,0.02,0.11,0.2
46000,-3.07,-9.49,-1.86,-0.12,0.12,0.13
46100,-2.28,-9.23,-1.05,-0.02,0.08,0.1
46200,-2.42,-9.1,-1.02,0.11,0.14,0.03
46300,-2.45,-9.21,-1.07,0.21,0.19,-0.12
46400,-2.34,-9.49,-1.2,0.18,0.09,-0.09
46500,-2.41,-9.22,-1.17,0.06,0.07,-0.04
46600,-2.33,-9.22,-0.72,0.27,0.01,-0.07
46700,-2.49,-9.73,-0.93,0.25,0.02,-0.12
46800,-2.22,-9.48,-0.56,0.14,-0.05,-0.22
46900,-1.68,-10.02,-0.53,0,-0.15,-0.33
47000,-1.98,-10.12,-0.51,-0.03,-0.21,-0.2
47100,-1.19,-9.74,-0.36,-0.05,-0.21,-0.05
47200,-0.52,-9.83,-0.24,-0.09,-0.22,-0.35
47300,-0.23,-9.76,0.43,-0.03,-0.19,-0.21
47400,-0.13,-9.51,0.81,0.19,-0.01,-0.07
47500,-0.43,-9.84,0.3,0.13,-0.03,-0.17
47600,0.47,-9.52,0.46,0.2,0.07,-0.08
47700,-0.11,-10.03,0.37,0.2,0,-0.22
47800,0.53,-9.18,0.89,0.03,-0.09,0.1
47900,0.23,-9.79,0.39,0.26,0.21,0.19
48000,-0.95,-10.4,0.09,0.18,0.41,0.11
48100,-0.61,-10,0.38,0.05,0.29,0.24
48200,-1.12,-10.12,0.18,-0.15,0.22,0.14
48300,-1.1,-9.56,1.41,-0.03,0.42,0.39
48400,-1.83,-9.9,0.87,0.11,0.5,0.38
48500,-2.39,-9.82,-0.18,0.04,0.44,0.29
48600,-2.87,-9.46,-0.55,-0.32,0.06,0.15
48700,-2.87,-9.59,-0.46,-0.31,0.23,0.23
48800,-2.85,-9.58,-0.85,-0.37,-0.15,0.2
48900,-3.27,-9.27,-0.81,-0.33,-0.35,0.1
49000,-3.26,-9.15,-0.58,-0.24,-0.23,0.03
49100,-3.03,-9.16,-0.63,-0.12,-0.21,0
49200,-2.61,-9.21,-0.62,-0.09,-0.14,-0.12
49300,-2.26,-9.39,-0.68,0.12,-0.19,-0.3
49400,-2.37,-9.95,-1.05,-0.06,-0.45,-0.55
49500,-2.37,-10.3,-1.58,0.04,-0.54,-0.34
49600,-1.55,-10.12,-1.36,-0.13,-0.5,-0.27
49700,-1.15,-10.1,-0.89,-0.18,-0.28,-0.4
49800,-0.49,-9.97,-0.23,-0.14,-0.21,-0.23
49900,-0.15,-9.63,0.32,0.03,-0.15,-0.22
50000,0.06,-9.86,-0.8,-0.03,-0.09,-0.32
50100,0.11,-9.7,-0.71,-0.17,-0.17,-0.13
50200,0.47,-9.96,-1.1,-0.1,-0.18,-0.07
50300,0.39,-10.15,-1.14,-0.23,-0.27,-0.06
50400,0.12,-9.95,-1.15,-0.41,-0.34,0.13
50500,-0.03,-9.97,-1.02,-0.21,-0.17,0.17
50600,-0.17,-9.97,-1.11,-0.16,0.03,0.28
50700,-0.19,-9.37,-0.22,-0.11,0.18,0.26
50800,-0.25,-9.44,-0.16,0,0.25,0.43
50900,-1.03,-9.41,-0.64,-0.02,0.15,0.33
51000,-1.43,-9.35,-0.34,0,0.06,0.57
51100,-0.91,-8.51,-0.77,0.08,0.48,0.32
51200,-1.33,-9.01,-0.99,0.24,0.16,0.25
51300,-1.32,-9.68,-1.33,0.12,0.05,0.04
51400,-2.85,-9.46,-0.85,-0.22,0.08,0.07
51500,-2.6,-9.58,-0.93,-0.04,-0.19,0.55
51600,-3.15,-9.23,-1.16,-0.03,-0.21,0.14
51700,-3.34,-9.64,-2.58,0.05,0.11,-0.13
51800,-3.06,-9.2,-2.09,-0.12,0,-0.11
51900,-2.74,-9.42,-1.84,-0.11,-0.02,-0.21
52000,-2.8,-9.6,-2.16,-0.12,0.08,-0.19
52100,-2.15,-9.24,-1.58,-0.28,-0.19,0
52200,-2.22,-9.47,-1.81,-0.22,-0.23,-0.21
52300,-1.81,-9.39,-2.05,-0.33,-0.26,-0.24
52400,-1.29,-9.64,-1.58,-0.14,-0.14,-0.27
52500,-1.14,-10,-2.32,0.02,-0.04,-0.41
52600,-1.41,-10.04,-2.46,-0.05,0,-0.21
52700,-0.75,-9.82,-2.55,-0.06,-0.13,-0.19
52800,-0.06,-9.98,-2.31,-0.13,-0.28,-0.21
52900,0.47,-9.79,-2.58,-0.05,-0.33,-0.16
53000,-0.06,-9.94,-2.28,-0.01,-0.54,-0.18
53100,-0.33,-10.38,-2.96,-0.23,-0.54,-0.02
53200,0.21,-10.16,-3.7,-0.27,-0.34,-0.02
53300,-0.45,-10.1,-2.64,-0.14,-0.42,0.32
53400,-0.41,-9.94,-2.64,0.06,0.13,0.23
53500,-0.59,-9.94,-2.95,0.02,0.24,0.21
53600,-0.69,-9.84,-2.21,0.07,0.27,0.31
53700,-1.6,-10.16,-2.71,0.26,0.32,0.31
53800,-1.83,-9.99,-2.73,0.05,0.4,0.31
53900,-1.41,-9.75,-3.22,-0.37,-0.15,0.22
54000,-1.58,-9.44,-3.4,-0.2,-0.16,0.4
54100,-2.15,-9.36,-3.37,0.03,0,0.54
54200,-2.17,-9.34,-3.11,-0.16,0.03,0.22
54300,-2.27,-8.92,-3.38,-0.18,0.03,-0.01
54400,-2.49,-9.12,-3.56,-0.03,-0.12,-0.04
54500,-2.9,-9.02,-3.45,-0.06,-0.13,-0.14
54600,-2.9,-9.2,-3.3,0.02,0.11,-0.4
54700,-2.57,-9.39,-3.8,-0.07,0.01,-0.37
54800,-2.41,-9.46,-3.78,-0.03,-0.3,-0.37
54900,-1.63,-9.47,-3.74,-0.01,-0.23,-0.2
55000,-1.85,-9.64,-3.69,0.02,-0.16,-0.25
55100,-1.57,-9.49,-3.75,-0.19,-0.16,-0.32
55200,-0.93,-9.57,-3.51,-0.22,-0.26,-0.31
55300,-0.79,-9.52,-3.22,-0.06,-0.05,-0.26
55400,-0.7,-9.35,-3.15,0.09,0.02,-0.44
55500,-0.21,-9.33,-2.84,0.18,0.03,-0.28
55600,-0.51,-9.67,-3.34,0.12,0.14,-0.09
55700,-0.89,-9.86,-3.22,0.2,0.19,0.13
55800,-0.87,-9.84,-2.8,-0.02,0.05,0.33
55900,-1.3,-9.49,-2.5,0.08,0.36,0.33
56000,-1.13,-9.79,-2.66,0.01,0.38,0.31
56100,-1.2,-9.66,-2.72,-0.02,0.07,0.33
56200,-2.39,-9.72,-2.61,0.07,0.21,0.35
56300,-2.26,-9.73,-2.85,-0.12,0.08,0.26
56400,-1.79,-9.61,-3.34,-0.18,-0.27,0.35
56500,-2.04,-9.29,-2.89,-0.07,0.09,0.29
56600,-2.86,-9.41,-2.69,0.11,0.27,0.31
56700,-2.8,-9.3,-2.7,0.06,0.13,0.03
56800,-2.61,-9.14,-3,0.14,0.13,0.05
56900,-2.5,-9.33,-2.33,0.12,0.09,-0.1
57000,-2.62,-9.41,-2.7,0.16,0,-0.29
57100,-2.13,-9.2,-2.69,0.06,-0.12,-0.24
57200,-1.94,-9.42,-2.17,-0.1,-0.24,-0.24
57300,-1.33,-9.56,-1.51,0,-0.09,-0.4
57400,-1.35,-9.74,-1.94,-0.02,-0.24,-0.4
57500,-1.12,-9.76,-2,-0.01,-0.27,-0.37
57600,-0.98,-9.87,-1.77,-0.03,-0.14,-0.28
57700,-0.17,-9.64,-1.84,-0.1,0,-0.29
57800,-0.02,-9.99,-2.15,0.01,-0.03,-0.19
57900,-0.07,-9.72,-2.04,0.03,-0.38,-0.13
58000,-0.44,-10.03,-1.31,0.11,0.04,0.05
58100,-0.13,-10.06,-1.92,0.05,0.18,0.09
58200,-0.39,-9.83,-1.7,0.07,-0.17,0.25
58300,-0.1,-9.84,-1.09,-0.12,0.14,0.07
58400,0.37,-9.65,-1.34,0.01,0.31,0.19
58500,-0.82,-9.71,-1.2,0.09,0.25,0.34
58600,-0.83,-9.95,-1.4,0.11,0.15,0.36
58700,-1.94,-10,-1.62,0.01,0.27,0.42
58800,-1.84,-9.87,-1.82,-0.11,0.23,0.47
58900,-2.26,-9.43,-0.75,0.15,0.36,0.49
59000,-2.73,-9.24,-0.93,0.12,0.32,0.22
59100,-2.89,-8.99,-1.21,0.09,0.35,0.28
59200,-2.88,-8.85,-1.23,0.1,0.27,0.16
59300,-2.83,-8.83,-0.92,0.26,0.23,0.04
59400,-2.93,-8.67,-0.46,0.34,0.01,-0.18
59500,-2.77,-9.17,-0.99,0.31,-0.08,-0.36
59600,-3,-9.6,-0.24,0.14,-0.26,-0.59
59700,-1.8,-9.61,-0.41,0.04,-0.21,-0.5
59800,-1.59,-9.73,-0.48,0.04,-0.21,-0.45
59900,-1.05,-9.74,-0.52,-0.11,-0.26,-0.39
60000,-0.62,-9.69,0.16,-0.05,-0.19,-0.29
60100,-0.68,-9.93,-0.17,0.15,-0.09,-0.29
60200,0.03,-9.83,0.63,0.25,-0.04,-0.22
60300,0.25,-9.94,0.03,0.17,-0.01,-0.18
60400,0.53,-9.77,0.74,0.1,0.11,-0.1
60500,0.91,-9.45,1.27,0.25,0.06,-0.18
60600,0.13,-10.07,0.78,0.24,0.01,-0.14
60700,0.88,-9.63,1.44,0.07,-0.04,0.12
60800,-0.31,-10,0.94,-0.01,0.31,0.4
60900,-0.22,-9.62,1.33,-0.08,0.36,0.51
61000,-0.19,-9.62,1.07,-0.1,0.45,0.49
61100,-1.73,-9.13,1.44,0.03,0.48,0.42
61200,-1.65,-9.52,1.09,-0.14,0.41,0.24
61300,-1.86,-9.54,0.31,-0.3,0.33,0.54
61400,-2.66,-9.18,0.44,-0.36,0.25,0.42
61500,-2.6,-9.03,0.12,-0.25,0.04,0.32
61600,-3.35,-9.14,-0.48,-0.28,0.01,0.21
61700,-3.55,-9.09,-0.38,-0.28,-0.06,0.07
61800,-3.47,-9.02,-0.37,-0.26,-0.13,0.1
61900,-3.21,-9.17,-0.42,-0.17,0,-0.03
62000,-3.36,-8.99,-0.63,-0.18,-0.06,-0.23
62100,-2.9,-9.02,-0.49,-0.12,-0.01,-0.15
62200,-2.94,-9.35,-0.67,0.01,-0.1,-0.23
62300,-2.64,-9.46,-0.4,0.1,0.01,-0.3
62400,-1.89,-9.49,-0.64,0.06,-0.04,-0.39
62500,-1.84,-9.59,-0.77,0.03,-0.05,-0.23
62600,-1.4,-9.78,-0.3,0.05,0.34,-0.42
62700,-0.76,-9.77,-0.82,-0.06,-0.16,-0.27
62800,-0.64,-9.86,-0.22,-0.07,-0.26,-0.3
62900,-0.65,-9.96,-0.56,0.03,-0.02,-0.27
63000,-0.06,-10.19,-1.41,-0.05,-0.24,-0.21
63100,-0.05,-10.08,-1.34,-0.06,-0.32,-0.09
63200,0.17,-9.79,-0.88,-0.12,-0.21,-0.13
63300,0.51,-9.77,-0.46,-0.07,0.15,-0.22
63400,0.43,-9.94,-1.14,-0.09,-0.16,0
63500,0.23,-9.79,-1.26,-0.28,-0.25,-0.03
63600,0.67,-10.07,-1.77,-0.16,-0.2,0.14
63700,0.37,-10.12,-1.93,-0.13,-0.2,0.11
63800,-0.05,-9.97,-1.73,-0.16,0.02,0.17
63900,0.28,-9.9,-1.65,-0.09,0.23,0.24
64000,0.11,-10.01,-2.17,-0.04,0.33,0.36
64100,-0.24,-9.81,-1.81,0.07,0.36,0.32
64200,-1.13,-9.69,-1.73,0.02,0.24,0.24
64300,-0.98,-9.99,-2.41,0,0.1,0.19
64400,-1.36,-9.71,-2.01,-0.04,-0.01,0.28
64500,-1.42,-9.68,-1.82,-0.05,0,0.23
64600,-1.33,-9.46,-1.59,-0.05,0.17,0.17
64700,-1.97,-9.59,-1.93,0.01,0.1,0.17
64800,-2.12,-9.75,-2.72,-0.01,0.13,0.13
64900,-2.38,-9.61,-2.19,-0.08,0.11,0.21
65000,-2.65,-9.5,-2.3,-0.13,-0.1,0.25
65100,-2.19,-9.21,-2.42,-0.11,-0.04,0.39
65200,-3.01,-9.28,-2.33,-0.1,-0.07,0.16
65300,-3.02,-9.14,-2.27,-0.11,-0.15,0.02
65400,-3.47,-9.23,-2.7,-0.07,-0.04,-0.01
65500,-3.33,-9.19,-3,-0.11,-0.15,0.03
65600,-3.28,-9.23,-3.01,-0.13,-0.06,-0.04
65700,-2.86,-8.9,-3.02,-0.19,-0.21,-0.11
65800,-2.91,-9.14,-2.54,-0.18,-0.04,-0.22
65900,-2.66,-9.34,-3.45,-0.16,-0.31,-0.34
66000,-2.46,-9.31,-2.99,-0.11,-0.11,-0.13
66100,-1.96,-9.24,-2.54,-0.04,-0.08,-0.23
66200,-2,-9.39,-2.74,0.01,-0.32,-0.3
66300,-1.59,-9.55,-2.57,0.01,-0.27,-0.39
66400,-1.02,-9.73,-2.49,0,-0.16,-0.26
66500,-1.15,-9.91,-2.97,0.02,-0.18,-0.21
66600,-0.69,-9.81,-3.09,-0.08,0.01,-0.27
66700,-0.51,-9.6,-2.97,-0.11,0.01,-0.04
66800,-0.54,-9.53,-2.56,-0.12,-0.09,-0.11
66900,-0.6,-9.84,-2.74,-0.01,-0.01,-0.09
67000,-0.44,-9.87,-3.48,-0.22,-0.02,-0.21
67100,-0.35,-9.87,-3.63,-0.22,-0.28,-0.05
67200,-0.13,-9.47,-3.18,-0.26,-0.27,0.07
67300,-0.03,-9.52,-3.18,-0.15,-0.14,0.03
67400,0.2,-9.27,-3.72,-0.06,0.05,0.02
67500,-0.17,-9.51,-3.8,-0.12,-0.01,0.04
67600,-0.19,-9.45,-4.17,-0.03,-0.02,0.07
67700,-1.13,-9.42,-4.06,-0.02,0.15,0.23
67800,-0.99,-9.43,-4.09,-0.05,0.26,0.21
67900,-0.99,-9.18,-4.09,-0.08,0.31,0.11
68000,-1.23,-9.38,-4.09,0.02,0.16,0.15
68100,-1.01,-9.29,-4.53,-0.01,0.24,0
68200,-1.8,-9.26,-4.35,0.02,0.16,0.25
68300,-1.56,-9.25,-4.28,0.05,0.1,0.1
68400,-2.07,-9.27,-4.06,0.05,0.21,0.19
68500,-1.58,-9.28,-4.31,0.01,0.26,0.13
68600,-1.76,-9.18,-4.93,0.08,0.19,0.13
68700,-2.59,-9.23,-4.45,0.02,0.17,0.29
68800,-2.51,-8.85,-4.36,-0.11,-0.07,0.34
68900,-2.96,-9.19,-4.3,0.14,0.02,0.29
69000,-2.06,-8.84,-4.39,0.09,0.16,0.17
69100,-2.56,-8.99,-4.34,0.13,0.1,0.12
69200,-3.01,-8.99,-4.02,0.14,0.09,0.01
69300,-2.84,-9.11,-3.99,0.14,0.08,-0.05
69400,-2.47,-9.14,-4.1,0.02,0.08,-0.14
69500,-1.8,-9.09,-4.01,-0.01,-0.14,-0.25
69600,-1.74,-9.23,-3.45,0.05,-0.12,-0.21
69700,-2.17,-9.68,-3.52,0.02,-0.1,-0.25
69800,-2.02,-9.53,-2.93,0,-0.08,-0.19
69900,-1.54,-9.27,-3.09,-0.02,0.01,-0.2
70000,-1.26,-9.61,-3.03,0.01,-0.07,-0.18
70100,-0.96,-9.77,-3.06,0.05,-0.11,-0.23
70200,-1.15,-9.96,-2.91,-0.02,-0.19,-0.25
70300,-0.83,-9.77,-3.13,-0.08,-0.06,-0.27
70400,-0.36,-9.7,-2.76,-0.05,-0.09,-0.07
70500,-0.07,-10.08,-3.48,0.14,-0.07,-0.14
70600,-0.13,-10.07,-3,-0.01,-0.06,-0.25
70700,-0.02,-10,-2.45,0.11,-0.11,-0.25
70800,-0.11,-10.01,-2.3,0.13,-0.2,-0.19
70900,-0.01,-9.9,-1.89,0.21,-0.19,0.03
71000,0.34,-9.52,-1.14,0.09,-0.08,0.08
71100,0.53,-9.83,-1.49,0.23,0.46,0.23
71200,-0.51,-9.75,-1.5,0.16,0.34,0.25
71300,-0.23,-9.86,-1.17,0.02,0,0.22
71400,-0.22,-10.02,-1.75,0.12,0.12,0.14
71500,-1.22,-10,-1.66,0.11,0.22,0.14
71600,-1.11,-9.96,-1.5,-0.06,0.03,0.08
71700,-0.99,-9.87,-1.34,-0.03,0.11,0.24
71800,-1.68,-9.73,-1.37,0.06,0.13,0.31
71900,-1.56,-9.76,-1.64,-0.02,0.22,0.25
72000,-1.78,-9.54,-1.61,-0.02,0.16,0.23
72100,-2.06,-9.48,-1.3,-0.06,0.2,0.23
72200,-2.29,-9.13,-1.06,-0.17,0.08,0.32
72300,-2.51,-9.12,-1.33,-0.17,0.11,0.19
72400,-2.81,-9.16,-1.46,-0.13,0.13,0.11
72500,-3.32,-9.14,-1.84,-0.05,-0.19,0.24
72600,-3.36,-9.3,-1.55,0.05,-0.08,0.17
72700,-3.41,-8.96,-1.58,0,0.15,0.07
72800,-3.38,-8.96,-1.67,0.01,0.07,0.03
72900,-3.69,-8.98,-1.47,0.09,0.12,-0.32
73000,-3.45,-9.07,-1.55,0.17,0.17,-0.07
73100,-2.94,-9.14,-1.66,0.15,0.17,-0.11
73200,-3.12,-9.21,-1.75,0.05,0.03,-0.13
73300,-2.96,-9.31,-1.17,0.02,0.02,-0.15
73400,-2.82,-9.58,-1.66,0.08,-0.05,-0.14
73500,-2.46,-9.63,-1.35,0.06,-0.16,-0.21
73600,-2.37,-9.66,-1.17,0.11,-0.09,-0.28
73700,-1.97,-9.52,-1.27,0,-0.18,-0.22
73800,-1.45,-9.68,-0.92,-0.11,-0.02,-0.23
73900,-1.41,-9.73,-0.86,-0.06,-0.07,-0.22
74000,-0.63,-9.5,-0.71,0,-0.17,-0.26
74100,-1.02,-10.19,-0.74,-0.03,-0.24,-0.2
74200,-0.35,-9.94,-0.55,-0.14,-0.07,-0.14
74300,-0.37,-9.97,-1.17,-0.11,-0.14,-0.21
74400,0.05,-9.92,-0.76,-0.23,-0.35,-0.06
74500,0.49,-9.62,-0.47,-0.23,0.01,-0.09
74600,0.89,-9.91,-0.4,-0.08,-0.15,-0.13
74700,0.85,-9.58,-0.09,-0.01,0.04,-0.21
74800,1.02,-9.5,0,0.61,0.18,-0.27
74900,-0.02,-10.17,-0.39,0.68,0.33,-0.2
75000,-0.8,-10.17,-0.26,0.27,0.11,0.35
75100,-0.62,-9.79,0.71,0.03,0.04,0.95
75200,0.73,-8.74,0.61,-0.46,0.12,0.54
75300,-0.52,-9.17,0.61,-0.04,0.06,0.19
75400,-1.04,-9.81,0,0.11,0.14,-0.02
75500,-1.65,-9.77,-0.39,0.05,0.18,0.12
75600,-2.37,-10.37,-1.08,-0.08,0.18,0.33
75700,-2.43,-10.35,-0.72,-0.21,0.01,0.44
75800,-3.66,-9.83,-0.96,-0.47,0.21,0.54
75900,-3.22,-8.45,-0.42,-0.32,-0.05,0.39
76000,-3.65,-8.56,-0.6,-0.15,0.29,0.26
76100,-4.46,-8.79,-1.72,-0.08,0.16,0.39
76200,-4.69,-8.69,-1.38,-0.34,-0.01,0.26
76300,-4.15,-8,-0.4,-0.29,0.11,0.48
76400,-4.2,-7.96,-2.39,-0.08,0.07,0.1
76500,-5.23,-8.12,-1.83,-0.15,-0.11,0.01
76600,-4.8,-7.96,-2.36,-0.21,-0.18,-0.12
76700,-4.84,-8.29,-2.29,-0.07,-0.07,-0.21
76800,-4.57,-8.37,-2.44,-0.06,-0.03,-0.22
76900,-4.58,-8.63,-2.06,-0.12,-0.14,-0.34
77000,-3.84,-9.11,-2.08,-0.02,-0.26,-0.23
77100,-3.23,-9.39,-1.81,-0.07,-0.15,-0.42
77200,-2.86,-9.52,-1.57,0.1,-0.34,-0.63
77300,-2.37,-9.31,-1.9,-0.09,-0.26,-0.6
77400,-1.81,-9.87,-0.92,0.05,-0.19,-0.53
77500,-1.06,-9.89,-1.16,-0.22,-0.42,-0.42
77600,-0.53,-9.79,-0.76,-0.06,-0.18,-0.33
77700,0.26,-9.91,-1.76,-0.03,-0.1,-0.29
77800,0.82,-9.92,-1.43,-0.24,-0.27,-0.31
77900,0.73,-10.18,-1.54,-0.14,0.05,-0.26
78000,-0.67,-9.9,-1.53,-0.24,-0.08,-0.34
78100,0.88,-9.89,-1.97,-0.03,0.3,0.12
78200,0.78,-10.11,-2.23,-0.19,-0.46,0.09
78300,0.21,-10.01,-2.73,-0.23,-0.69,0.11
78400,0.48,-10.41,-3.5,-0.11,-0.21,0.23
78500,0.04,-9.7,-3.24,-0.2,0.13,0.19
78600,-0.53,-9.59,-2.14,-0.01,0.33,0.68
78700,-0.88,-9.73,-2.23,0.12,0.27,0.51
78800,-1.25,-9.39,-2.25,0.16,0.43,0.24
78900,-1.43,-9.52,-2.43,0.37,0.4,0.48
79000,-2.13,-9.73,-2.68,0.29,0.41,0.43
79100,-2.47,-9.53,-1.76,0.11,0.36,0.43
79200,-2.53,-9.27,-2.85,0.03,0.21,0.28
79300,-3.23,-9.12,-2.77,-0.16,-0.12,0.27
79400,-3.64,-9.24,-2.3,-0.04,-0.01,0.28
79500,-3.73,-8.95,-2.55,-0.07,-0.04,0.2
79600,-3.55,-8.58,-2.6,-0.03,-0.06,0
79700,-3.92,-8.7,-3.09,0,-0.07,0.03
79800,-3.96,-8.8,-2.65,-0.17,-0.17,0.06
79900,-3.85,-8.55,-2.41,-0.1,-0.13,-0.14
80000,-3.89,-8.6,-2.21,-0.21,-0.25,-0.29
80100,-3.89,-8.75,-2.11,-0.01,-0.09,-0.25
80200,-3.69,-9.03,-2.53,-0.05,-0.2,-0.34
80300,-3.52,-9.36,-2.68,-0.07,0.11,-0.45
80400,-3.58,-9.71,-3.07,-0.21,-0.2,-0.32
80500,-2.8,-9.6,-2.07,-0.06,-0.18,-0.24
80600,-2.32,-9.49,-2.9,0.13,0.05,-0.26
80700,-2.3,-9.81,-2.45,-0.26,-0.31,-0.46
80800,-1.38,-9.62,-2.2,-0.18,-0.1,-0.44
80900,-0.1,-10.02,-3.56,-0.13,0.43,-0.48
81000,-0.25,-9.69,-3.54,-0.19,-0.27,-0.47
81100,-0.44,-9.73,-2.76,-0.1,0.17,-0.05
81200,0.17,-10,-3.5,-0.18,-0.06,-0.19
81300,-0.68,-10.01,-3.18,-0.31,-0.25,-0.26
81400,-0.1,-9.61,-3.86,-0.33,-0.3,0.01
81500,-0.19,-9.45,-3.69,-0.31,-0.22,0.17
81600,-0.45,-9.74,-4.56,0.05,0.1,0.26
81700,-0.94,-9.39,-3.8,0.08,0.26,0.21
81800,-0.67,-9.34,-3.85,-0.02,0.15,0.3
81900,-0.43,-9.4,-3.8,0.11,0.28,0.32
82000,-1.18,-9.46,-3.48,0.15,0.21,0.27
82100,-1.49,-9.47,-3.41,0.01,0.27,0.15
82200,-1.95,-9.79,-3.22,0.27,0.15,0.5
82300,-2.24,-9.42,-3.15,0.21,0.05,0.41
82400,-2.25,-9.24,-2.98,0.19,0.22,0.33
82500,-2.97,-9.49,-3.2,0.04,0.18,0.26
82600,-3.67,-9.41,-3.53,-0.09,0.12,0.4
82700,-2.96,-8.95,-3.23,-0.07,0.04,0.29
82800,-3.68,-8.56,-3.05,-0.06,-0.08,0.22
82900,-3.83,-8.67,-3.14,-0.11,0.17,0.1
83000,-3.5,-8.37,-3.36,0.01,0.07,0.18
83100,-4.05,-8.64,-3.75,-0.18,0.02,0.05
83200,-4.28,-8.24,-3.23,-0.21,-0.14,0.13
83300,-4.39,-8.39,-3.68,-0.19,-0.11,-0.1
83400,-4.17,-8.39,-3.3,-0.07,-0.03,-0.15
83500,-3.59,-8.34,-3.24,-0.17,-0.1,-0.23
83600,-4.21,-8.69,-3.26,-0.21,-0.08,-0.25
83700,-3.46,-8.48,-3.58,0,-0.24,-0.07
83800,-2.85,-8.9,-3.82,-0.15,0,-0.29
83900,-2.59,-8.93,-3.92,-0.11,0.05,-0.28
84000,-2.29,-9.05,-4.13,0.08,-0.02,-0.16
84100,-1.87,-9.06,-4.65,-0.01,0.01,-0.23
84200,-1.85,-9.55,-4.9,-0.17,0.2,-0.44
84300,-0.52,-9.37,-4.7,-0.09,0.07,-0.4
84400,-0.58,-9.8,-5.06,-0.15,-0.4,-0.36
84500,-0.32,-9.42,-4.58,-0.04,-0.13,-0.42
84600,-0.01,-9.28,-4.34,-0.05,-0.31,-0.44
84700,0.45,-9.28,-4.13,0.15,0.11,-0.23
84800,0.38,-9.44,-4.21,0.31,0.4,-0.16
84900,0.14,-9.31,-3.06,0.23,0.19,0.13
85000,-0.16,-9.66,-3.02,0.37,0.24,0.31
85100,0.04,-9.7,-3.26,0.26,0.46,0.43
85200,-0.52,-9.79,-3.32,0.06,0.22,0.44
85300,-0.54,-9.99,-3.31,0.09,0.45,0.43
85400,-0.81,-9.5,-2.95,0.03,0.26,0.28
85500,-0.92,-9.5,-2.87,0.15,0.12,0.47
85600,-1.85,-9.83,-3.52,0,0.13,0.26
85700,-2.6,-9.58,-3,-0.04,0.09,0.27
85800,-2.35,-9.35,-2.59,0.01,0.2,0.44
85900,-3.06,-9.25,-2.66,-0.06,0.29,0.33
86000,-3.33,-9.39,-3.05,0.04,0.21,0.21
86100,-3.56,-9.07,-3.31,0.05,0.12,0.24
86200,-2.94,-8.74,-3.06,0.06,0.05,0.18
86300,-3.14,-8.57,-3.31,-0.05,0.04,0.09
86400,-3.55,-8.93,-3.04,0.04,0.12,0.14
86500,-3.86,-9,-3.3,0.2,0.07,0.13
86600,-3.93,-8.79,-3.13,0.07,0.12,-0.03
86700,-3.7,-9.05,-3.02,-0.01,-0.02,-0.09
86800,-3.23,-8.84,-2.9,0.08,-0.04,-0.13
86900,-3.14,-8.8,-2.41,0.11,-0.04,-0.19
87000,-2.99,-9.18,-2.51,0.15,0.1,-0.31
87100,-2.74,-9.42,-2.37,0.05,-0.02,-0.23
87200,-2.14,-9.11,-1.97,0,-0.08,-0.24
87300,-2.2,-9.77,-2,0.17,-0.03,-0.52
87400,-2.09,-10.15,-2.37,-0.02,-0.2,-0.46
87500,-1.49,-10.09,-2.25,-0.13,-0.05,-0.51
87600,-1.25,-10.03,-2.26,-0.03,-0.28,-0.5
87700,-0.11,-9.72,-1.61,0.08,-0.08,-0.52
87800,0.19,-9.86,-1.62,-0.09,0.01,-0.35
87900,0.68,-9.89,-1.99,0.04,0.04,-0.16
88000,0.76,-9.68,-2.11,0.28,-0.17,-0.42
88100,0.51,-10.13,-1.96,0.11,-0.15,-0.17
88200,-0.02,-10.21,-1.85,0.2,-0.08,0.1
88300,0.95,-10.19,-1.45,0.05,0.07,0.36
88400,0.5,-10.02,-1.62,0.04,0.24,0.46
88500,-0.05,-9.92,-1.16,-0.08,-0.01,0.31
88600,-0.53,-9.66,-0.7,0.03,0.24,0.44
88700,-0.67,-9.79,-1.37,-0.06,0.02,0.34
88800,-1.72,-10.07,-1.12,0.03,0.18,0.23
88900,-2.12,-9.61,-1.58,-0.1,0.47,0.3
89000,-1.97,-9.74,-1.67,-0.18,0,0.31
89100,-2.97,-9.85,-1.71,-0.06,0.03,0.37
89200,-2.98,-9.37,-1.42,-0.04,0.23,0.37
89300,-3.1,-9.08,-1.39,0.11,0.35,0.43
89400,-3.51,-8.71,-1.66,0.05,0.21,0.17
89500,-3.35,-8.84,-2.13,0.02,0.11,0.1
89600,-4.34,-8.81,-1.75,0.13,0.31,0.21
89700,-4.55,-8.88,-1.22,0.4,0.19,0.46
89800,-4.75,-8.39,-1.64,0.12,0.24,-0.07
89900,-4.18,-8.46,-1.61,0.13,0.09,-0.19
90000,-3.62,-8.56,-1.41,0.02,-0.27,-0.43
90100,-3.66,-8.66,-0.84,-0.05,-0.33,-0.66
90200,-3.31,-9.27,-0.71,0.06,-0.32,-0.61
90300,-2.37,-9.34,-0.56,-0.04,-0.38,-0.54
90400,-2.15,-9.57,-0.33,-0.19,-0.25,-0.46
90500,-1.4,-9.65,-0.63,-0.1,-0.34,-0.41
90600,-1.14,-10.04,-0.88,-0.15,-0.31,-0.29
90700,-0.69,-9.99,-0.9,-0.1,-0.06,-0.28
90800,0.01,-9.91,-0.39,0.04,-0.26,-0.38
90900,0.18,-10.19,-0.78,0.27,-0.3,-0.33
91000,0.3,-10.11,-0.53,0.01,-0.41,-0.34
91100,0.89,-10.06,-0.62,0.06,0.02,-0.12
91200,1.19,-9.83,-0.37,0.02,-0.1,-0.15
91300,1.24,-9.91,0.02,0.02,0.03,-0.04
91400,1.25,-9.72,0.51,0.18,0.15,0.03
91500,0.89,-9.84,0.17,0.1,0.24,0.25
91600,0.5,-9.62,0.29,0.07,0.45,0.33
91700,0.88,-9.6,0.22,0.02,0.14,0.4
91800,-0.47,-9.54,1.47,-0.01,0.03,0.32
91900,-0.77,-9.64,0.81,-0.06,0.43,0.29
92000,-1.02,-9.22,1.35,-0.01,0.58,0.43
92100,-1.88,-9.83,-0.11,0.12,0.45,0.54
92200,-2.77,-9.73,-0.37,-0.2,0.16,0.34
92300,-3.27,-9.06,0.06,-0.19,0.4,0.46
92400,-4.08,-9.12,-0.32,-0.26,0.06,0.52
92500,-4.24,-9.02,-0.48,-0.18,0.22,0.47
92600,-4.73,-8.38,-0.02,-0.12,0.19,0.2
92700,-5.05,-8.55,-0.16,-0.04,0.06,0.21
92800,-4.8,-8.57,-1.08,-0.15,-0.01,0.09
92900,-4.7,-8.51,-1.42,-0.18,-0.03,-0.11
93000,-4.97,-8.49,-1.03,-0.17,-0.05,-0.11
93100,-4.25,-8.78,-0.91,-0.06,-0.09,-0.28
93200,-3.83,-8.61,-0.99,-0.12,-0.09,-0.27
93300,-3.44,-8.91,-1.48,-0.04,-0.21,-0.41
93400,-3.15,-9.46,-0.83,-0.06,-0.34,-0.43
93500,-2.55,-9.38,-0.86,-0.1,-0.34,-0.41
93600,-1.87,-9.57,-1.15,-0.19,-0.42,-0.62
93700,-1.48,-9.93,-0.88,-0.13,-0.39,-0.52
93800,-1.11,-9.81,-0.76,-0.26,-0.59,-0.92
93900,-0.53,-10.18,-1.18,-0.03,-0.14,-0.25
94000,0.27,-10.13,-1.5,-0.11,-0.19,-0.2
94100,-0.09,-9.93,-1.91,-0.22,-0.29,-0.14
94200,0.73,-9.75,-1.86,-0.24,-0.33,-0.05
94300,0.58,-9.81,-1.99,-0.27,-0.13,-0.21
94400,0.58,-10.01,-2.42,-0.25,0.04,-0.14
94500,0.51,-9.82,-2.25,-0.23,-0.07,0.11
94600,0.61,-9.64,-2.91,-0.07,0.15,0.25
94700,-0.65,-10.12,-2.93,-0.16,-0.07,0.08
94800,-0.11,-9.9,-3.03,-0.16,0.05,0.25
94900,-0.28,-9.9,-3.32,-0.08,0.14,0.71
95000,-0.44,-9.79,-2.63,-0.14,0.09,0.41
95100,-1.63,-9.59,-2.34,0.03,0.45,0.26
95200,-1.28,-9.63,-2.27,0.07,0.3,0.26
95300,-1.63,-9.6,-3.22,0.03,0.06,0.35
95400,-2.09,-9.32,-2.65,0.11,0.23,0.55
95500,-3.03,-9.59,-3.03,-0.06,0.18,0.45
95600,-2.71,-9.3,-3.1,-0.11,0.16,0.2
95700,-3.67,-9.21,-3.69,-0.17,-0.13,0.27
95800,-3.72,-8.9,-2.89,-0.15,-0.09,0.27
95900,-3.64,-8.76,-3.2,-0.1,-0.21,0.17
96000,-3.84,-8.74,-3.3,-0.19,-0.69,0.1
96100,-3.61,-8.6,-3.21,-0.14,-0.17,0.1
96200,-3.95,-8.48,-3.24,-0.11,-0.08,-0.05
96300,-4.23,-8.59,-3.02,-0.12,0.03,-0.07
96400,-3.8,-8.7,-3.01,-0.12,0.16,-0.15
96500,-3.51,-8.82,-3.06,-0.14,0.13,-0.21
96600,-3.18,-8.71,-2.95,-0.03,-0.07,-0.15
96700,-3.11,-8.92,-3.08,-0.08,-0.02,-0.21
96800,-2.88,-9.22,-3.01,-0.04,0.09,-0.38
96900,-2.47,-9.41,-3.19,-0.03,0.02,-0.45
97000,-2.31,-9.42,-2.72,-0.02,-0.34,-0.39
97100,-1.85,-9.58,-2.73,-0.09,-0.16,-0.42
97200,-1.5,-9.54,-2.92,-0.06,-0.26,-0.2
97300,-0.62,-9.74,-3.32,-0.13,-0.01,-0.28
97400,-0.36,-9.49,-2.85,-0.22,0.29,-0.34
97500,-0.21,-9.8,-3.42,-0.11,-0.19,-0.09
97600,-0.28,-9.81,-3.48,-0.12,-0.19,-0.03
97700,0.03,-9.66,-3.52,-0.19,-0.26,-0.12
97800,-0.02,-9.63,-3.9,-0.19,-0.28,-0.18
97900,0.4,-9.54,-4.08,-0.2,-0.17,0.04
98000,-0.29,-9.56,-4.3,-0.18,-0.14,0.17
98100,-0.81,-9.59,-4.37,-0.1,-0.11,0.23
98200,-1.6,-9.48,-3.58,0.08,0.2,0.45
98300,-1.74,-9.51,-3.63,0.07,0.14,0.48
98400,-2.64,-9.88,-3.85,0.08,-0.11,0.37
98500,-2.56,-9.32,-3.48,0.01,-0.07,0.39
98600,-2.87,-9.39,-3.59,0.05,0.06,0.6
98700,-3.61,-9.46,-3.03,0.03,-0.17,0.46
98800,-3.8,-9.27,-3.29,0.11,-0.08,0.55
98900,-3.92,-8.6,-2.83,0.12,0.07,0.65
99000,-3.47,-8.76,-3.24,0.02,0.2,0.32
99100,-3.8,-8.52,-3.79,0.13,0.07,0.34
99200,-5.18,-8.52,-3.16,0.12,-0.04,0.3
99300,-5.35,-8.22,-2.68,0.09,0.24,0.17
99400,-5.32,-8.57,-2.94,0.15,0.2,0.15
99500,-4.43,-8.28,-3.5,0.05,0.12,0.05
99600,-3.74,-8.48,-3.59,0.08,0.13,-0.16
99700,-3.19,-8.42,-3.48,0.08,0.09,-0.26
99800,-3.69,-8.8,-3.01,-0.01,0.03,-0.29
99900,-3.32,-8.7,-3.11,-0.05,-0.01,-0.33
100000,-3.19,-9.15,-3.18,0.08,0,-0.4
100100,-3.51,-9.5,-2.64,0.03,-0.14,-0.46
100200,-2.49,-9.54,-2.89,-0.06,-0.2,-0.36
100300,-2.12,-9.56,-2.79,0.02,-0.01,-0.1
100400,-1.81,-9.52,-2.85,0.06,-0.07,-0.17
100500,-1.52,-9.6,-2.75,0.04,-0.06,-0.28
100600,-0.94,-9.9,-2.75,0.06,-0.08,-0.44
100700,-0.8,-9.82,-2.6,0.04,-0.12,-0.3
100800,-0.36,-9.6,-1.86,0.12,-0.06,-0.23
100900,-0.51,-10.01,-1.66,0.3,-0.14,-0.29
101000,-1.07,-10.22,-2.21,0.13,-0.09,-0.03
101100,-1.25,-10.21,-1.82,0.15,-0.29,0.22
101200,-0.93,-10.2,-2.22,-0.09,-0.1,0.44
101300,-1.45,-10.12,-1.86,-0.07,0.06,0.44
101400,-1.67,-9.85,-1.38,-0.12,0.27,0.28
101500,-1.67,-9.55,-1.55,0.04,0.46,0.4
101600,-2.11,-9.43,-2.22,-0.11,0.3,0.44
101700,-2.63,-9.32,-2.09,-0.01,0.2,0.62
101800,-3.51,-9.06,-1.71,-0.03,0.16,0.35
101900,-4.18,-8.91,-2.01,0.01,0.15,0.34
102000,-4.02,-8.6,-2.22,0.04,0.35,0.39
102100,-3.74,-8.19,-1.92,0.09,0.16,0.09
102200,-3.94,-8.34,-2.12,0.16,0.25,-0.17
102300,-3.96,-8.63,-1.81,0.2,0.19,-0.27
102400,-3.49,-8.79,-1.77,0.23,-0.18,-0.35
102500,-3.52,-9.13,-1.19,0.17,-0.15,-0.41
102600,-3.19,-9.2,-1.41,0.14,0.13,-0.46
102700,-2.47,-9.33,-0.98,0.1,-0.29,-0.49
102800,-2.25,-9.84,-1.36,0,-0.16,-0.63
102900,-1.86,-9.96,-0.9,-0.04,-0.34,-0.35
103000,-1.21,-9.66,-0.73,-0.07,-0.12,-0.32
103100,-1.15,-10.04,-0.85,0.09,0,-0.16
103200,-0.4,-9.76,-0.61,0.03,-0.01,-0.24
103300,-0.36,-9.75,-0.32,0.09,-0.14,-0.15
103400,0.42,-9.98,-0.47,0.09,-0.19,-0.16
103500,0.45,-9.77,-0.18,0.03,-0.17,-0.29
103600,1.03,-9.53,0.54,0.29,-0.04,-0.33
103700,1.02,-9.89,0.37,0.15,-0.08,-0.2
103800,1.16,-9.72,0.25,0.15,0.16,-0.14
103900,0.93,-10.11,-0.25,0.01,0.07,0.07
104000,0.03,-9.98,0.81,-0.01,0.32,0.56
104100,0.04,-10.17,0.35,0.02,0.2,0.57
104200,-0.55,-9.87,0.68,-0.2,0.08,0.44
104300,-0.47,-9.87,0.05,-0.02,0.53,0.62
104400,-1.47,-9.53,-0.19,-0.01,0.41,0.54
104500,-1.78,-9.25,0.09,-0.13,0.39,0.37
104600,-2.6,-9.35,-0.38,0.08,0.19,0.39
104700,-3.24,-9.59,-1.04,-0.1,0.15,0.46
104800,-3.7,-9.29,-0.67,-0.15,-0.06,0.48
104900,-4.14,-9,0.07,-0.01,0.11,0.26
105000,-4.23,-8.51,0.33,0.01,0.18,0.24
105100,-3.68,-8.23,0,0.21,0.19,0.19
105200,-4.11,-8.72,-0.18,0.31,0.32,0.08
105300,-4,-8.68,-0.51,0.13,0.01,-0.19
105400,-3.92,-8.54,-0.18,0.15,0.05,-0.31
105500,-3.48,-8.54,0.61,0.05,-0.24,-0.28
105600,-3.17,-8.95,0.23,0.08,-0.09,-0.26
105700,-2.86,-9.06,0.49,0.14,-0.22,-0.36
105800,-2.62,-9.18,0.79,0.06,0.04,-0.41
105900,-2.51,-9.27,0.92,0.07,-0.1,-0.31
106000,-1.54,-9.44,0.38,-0.02,-0.31,-0.48
106100,-0.62,-9.31,1.25,0.03,-0.19,-0.47
106200,-0.89,-9.77,1.33,0.26,-0.4,-0.47
106300,-0.4,-9.73,1.12,0.1,-0.13,-0.36
106400,0.47,-9.7,1.29,0.13,0.08,-0.21
106500,0.83,-9.5,1,0.02,-0.01,-0.16
106600,2.08,-9.43,1.13,-0.3,-0.71,-0.48
106700,1.27,-9.58,0.62,-0.25,-0.71,-0.22
106800,1.3,-9.67,0.77,-0.24,-0.17,0.25
106900,1.18,-9.99,0.41,-0.39,-0.12,0.43
107000,1.36,-9.97,0.35,-0.19,0.26,0.37
107100,-0.23,-10.12,0.3,-0.06,0.42,0.36
107200,-0.14,-10.29,-1.01,0.16,0.49,0.68
107300,-1.18,-9.95,-0.69,-0.09,0.63,0.65
107400,-2.27,-10.08,0.06,-0.1,0.35,0.92
107500,-1.44,-9.39,-0.73,-0.03,0.21,0.54
107600,-2.66,-9.48,-1.28,-0.01,0.14,0.33
107700,-2.87,-9.4,-1.72,0,0,0.22
107800,-4.74,-9.88,-1.19,-0.13,-0.07,0.26
107900,-4.48,-8.97,-1.29,-0.29,-0.11,0.45
108000,-4.48,-8.63,-1.17,-0.23,0.07,0.3
108100,-4.29,-8.19,-0.96,-0.32,-0.23,-0.01
108200,-4.5,-8.48,-1.2,-0.32,-0.41,-0.35
108300,-4.83,-8.94,-1.74,0,-0.12,-0.27
108400,-4.33,-8.49,-1.78,-0.13,-0.29,-0.24
108500,-3.57,-9.03,-1.48,-0.15,-0.2,-0.48
108600,-3.15,-8.96,-1.08,-0.09,-0.33,-0.42
108700,-2.91,-9.5,-0.76,-0.07,-0.43,-0.47
108800,-2.01,-9.53,-1.24,-0.07,-0.37,-0.28
108900,-1.74,-9.73,-1.11,-0.16,-0.35,-0.27
109000,-0.96,-9.67,-1.02,-0.04,-0.14,-0.32
109100,-0.73,-9.83,-1.32,0.03,-0.02,-0.36
109200,0.1,-9.88,-1.55,-0.2,-0.32,-0.3
109300,-0.28,-10.24,-1.5,-0.28,-0.32,-0.43
109400,0.23,-10.04,-2.1,-0.06,-0.24,-0.08
109500,0.34,-10.08,-1.94,-0.25,0.15,-0.08
109600,0.67,-9.8,-2.02,-0.17,0.05,0.06
109700,0.22,-10.01,-2.02,-0.17,-0.17,0.17
109800,-0.68,-10,-2.06,-0.01,0.1,0.31
109900,-0.42,-10.04,-1.64,-0.05,0.07,0.3
110000,-0.98,-10.06,-1.64,0.3,0.13,0.53
110100,-1.28,-9.96,-1.68,0.07,0.26,0.25
110200,-1.01,-9.7,-1.82,0.28,0.14,0.4
110300,-1.34,-9.59,-1.77,0.03,0.27,0.19
110400,-2.15,-9.27,-1.33,0.11,0.14,0.55
110500,-2.32,-9.22,-1.25,0,0.36,0.45
110600,-2.53,-9.16,-1.56,0.12,0.32,0.41
110700,-2.91,-9.04,-2.06,0.06,0.19,0.39
110800,-3.63,-8.75,-1.49,0.01,0.04,0.39
110900,-3.77,-8.56,-1.55,-0.16,0.01,0.31
111000,-4.38,-8.58,-2.02,-0.2,-0.12,0.33
111100,-3.89,-7.86,-1.73,-0.13,-0.08,0.14
111200,-4.89,-8.44,-1.78,0,-0.3,-0.16
111300,-5.32,-9.03,-1.82,-0.2,-0.34,-0.16
111400,-5.02,-8.93,-1.59,-0.07,-0.18,-0.17
111500,-4.6,-8.5,-1.65,-0.1,-0.16,-0.28
111600,-4.08,-9.01,-1.92,-0.1,-0.33,-0.29
111700,-3.92,-9.08,-1.73,-0.13,-0.17,-0.26
111800,-3.32,-9.12,-1.51,-0.11,-0.25,-0.32
111900,-2.75,-9.07,-0.97,-0.1,-0.05,-0.37
112000,-2.12,-9.38,-1.32,-0.13,0.01,-0.58
112100,-1.85,-9.65,-1.49,-0.06,0.05,-0.33
112200,-1.3,-9.9,-2.14,-0.09,0.17,-0.31
112300,-1.12,-9.78,-1.94,-0.21,0,-0.37
112400,-1.15,-9.93,-2.26,-0.26,-0.36,-0.18
112500,-1.83,-9.93,-2.35,-0.4,-0.5,-0.15
112600,-1.1,-9.79,-2.53,-0.47,-0.21,-0.28
112700,-0.3,-9.79,-3.34,-0.31,-0.24,-0.37
112800,-0.28,-9.81,-3.62,-0.03,-0.04,0.07
112900,-0.22,-9.41,-3.37,-0.1,-0.06,0.13
113000,-1.28,-9.64,-2.76,0.14,-0.14,0.41
113100,-2.33,-9.83,-2.45,0.36,0.24,0.67
113200,-3.24,-9.6,-2.13,0.21,0.33,0.51
113300,-2.83,-9.67,-2.34,0.09,0.44,0.43
113400,-2.65,-9.74,-3.52,0.06,0.5,0.26
113500,-3.01,-9.07,-3.61,0.02,0.56,0.4
113600,-3.09,-8.82,-3,0.05,0.25,0.37
113700,-3.52,-8.55,-2.61,0.13,0.51,0.23
113800,-3.62,-8.09,-2.92,0.18,0.35,0.08
113900,-3.99,-8.26,-2.91,0.19,0.28,0.22
114000,-4.78,-8.03,-2.33,0.25,0.09,0.19
114100,-4.85,-7.94,-2.14,0.1,0.41,-0.27
114200,-4.58,-8.4,-2.9,0.27,0.6,-0.51
114300,-4.02,-8.54,-2.87,0.06,0.27,-0.34
114400,-3.71,-8.89,-2.65,0.03,-0.06,-0.23
114500,-3.59,-8.82,-2.66,0.02,-0.25,-0.3
114600,-3.26,-9.1,-2.81,-0.09,-0.11,-0.37
114700,-2.94,-9.38,-2.44,-0.07,-0.29,-0.34
114800,-2.55,-9.41,-2.34,0.09,-0.3,-0.17
114900,-2.22,-9.28,-2.26,-0.02,-0.11,-0.28
115000,-2.43,-9.66,-2.13,-0.02,-0.17,-0.22
115100,-1.93,-9.79,-1.82,0.03,-0.02,-0.24
115200,-1.62,-9.86,-1.97,-0.04,-0.13,-0.35
115300,-1.46,-9.82,-1.9,0.11,-0.26,-0.29
115400,-1.37,-10.2,-1.7,0.07,-0.2,-0.41
115500,-0.37,-10,-1.76,0.06,-0.16,-0.44
115600,-0.51,-10.1,-1.65,-0.02,-0.15,-0.43
115700,-0.15,-10.21,-1.21,0.13,-0.01,-0.15
115800,-0.05,-10.26,-1.57,0.13,0.3,0.02
115900,0.44,-9.91,-1.19,-0.05,0.14,0.18
116000,0.26,-10,-0.98,0.01,0.14,0.14
116100,-0.33,-9.77,-0.81,0.08,0.42,0.53
116200,-0.76,-9.9,-0.52,-0.12,0.4,0.5
116300,-1.17,-10.07,-1.01,0.08,0.57,0.51
116400,-2.08,-9.94,-1.76,-0.04,0.14,0.37
116500,-2.52,-9.38,-1.48,-0.41,0.11,0.48
116600,-2.5,-9.27,-1.29,-0.3,-0.07,0.42
116700,-3.07,-9.22,-1.06,-0.04,0.12,0.3
116800,-3.28,-8.97,-1.83,-0.04,-0.06,0.31
116900,-3.83,-9.06,-1.64,-0.01,0.11,0.32
117000,-3.98,-9.11,-1.71,-0.15,0.29,0.39
117100,-4.05,-8.66,-2.25,0.13,0.34,0.24
117200,-4.09,-8.55,-1.84,0.08,0.11,-0.03
117300,-4.01,-8.76,-2.05,0.11,0.26,-0.08
117400,-3.62,-8.61,-1.5,0.15,0.19,-0.18
117500,-3.49,-8.72,-1.59,0.2,0.08,-0.06
117600,-3.48,-8.98,-1.83,0.11,-0.04,-0.25
117700,-3.21,-9.17,-1.73,0.01,-0.29,-0.5
117800,-2.71,-9.55,-1.07,0.07,-0.45,-0.44
117900,-2.23,-9.64,-0.69,0.08,-0.29,-0.68
118000,-2.02,-9.9,-0.95,0.01,-0.5,-0.48
118100,-1.29,-9.86,-0.3,0.09,-0.16,-0.4
118200,-0.73,-9.83,-0.19,0.05,-0.22,-0.25
118300,-0.83,-9.96,-0.1,0.1,-0.24,-0.2
118400,-0.5,-9.78,-0.39,-0.04,-0.11,-0.1
118500,0.05,-9.92,-0.07,-0.09,-0.06,-0.18
118600,-0.01,-9.9,0.18,0.1,-0.06,-0.15
118700,0.33,-9.93,0.36,0.34,-0.09,-0.26
118800,-0.21,-9.98,0.34,0.16,-0.07,0.14
118900,-0.22,-10.02,0.01,0.06,-0.1,0.11
119000,0.16,-9.74,0.79,0.07,0.21,0.29
119100,-0.71,-9.99,0.06,-0.05,0.27,0.24
119200,-1.38,-10.04,-0.1,-0.21,0.08,0.43
119300,-1.55,-9.72,0.42,-0.2,0.15,0.53
119400,-2.18,-9.56,0.65,0,0.4,0.52
119500,-2.25,-9.35,0.01,-0.05,0.43,0.2
119600,-2.83,-9.24,-0.68,-0.08,0.06,0.26
119700,-3.34,-9.11,-0.42,-0.1,0.32,0.42
119800,-3.17,-8.76,-0.6,-0.13,0.27,0.35
119900,-3.25,-8.9,-1.79,-0.09,0.02,0.3
120000,-4.2,-9.25,-1.86,-0.13,-0.14,0.01
120100,-4.7,-8.93,-1.3,-0.25,-0.24,0.11
120200,-4.43,-8.91,-1.74,-0.28,-0.33,-0.05
120300,-4.02,-8.96,-1.55,-0.36,-0.14,-0.09
120400,-3.04,-8.87,-1.81,-0.18,-0.34,-0.35
120500,-2.8,-9.09,-1.74,-0.21,-0.64,-0.46
120600,-2.71,-9.77,-1.65,-0.25,-0.67,-0.29
120700,-1.74,-9.7,-1.03,0,-0.45,-0.45
120800,-1.69,-9.74,-1.07,-0.07,-0.19,-0.37
120900,-1.08,-10.03,-0.98,0.02,-0.18,-0.15
121000,-1.12,-9.77,-0.58,-0.3,0.22,-0.01
121100,-1.02,-9.93,-1.88,-0.05,-0.46,0.23
121200,-1.33,-10.23,-2.63,0.11,-0.38,-0.44
121300,0.94,-9.84,-2.04,0.09,1.21,0.44
121400,0.52,-10.05,-1.67,0.03,-0.24,0.07
121500,-0.66,-10.37,-2.36,-0.06,0.08,-0.08
121600,-0.52,-10.57,-2.16,-0.27,0.06,0.18
121700,-0.64,-10.11,-2.2,0.01,0.01,0.23
121800,-0.51,-9.94,-2.24,-0.23,-0.23,0.14
