timestamp,accX,accY,accZ,anvX,anvY,anvZ
0,-0.81,-10.23,-0.34,0.93,0.13,-0.48
100,-1.41,-10.5,-2.08,0.75,0.37,-0.04
200,-0.53,-9.65,-1.14,-0.79,-0.11,0.31
300,-0.21,-9.73,-0.27,-0.33,-0.06,-0.22
400,-1.19,-10.06,-0.86,0.49,0.14,-0.16
500,-0.48,-9.16,-1.31,-0.11,-0.01,0.45
600,-0.34,-10.06,-0.57,-0.36,-0.31,-0.1
700,-1.65,-12.76,-1.28,0.2,0.04,-0.52
800,-1.14,-9.89,-1.4,-0.61,0.05,0.12
900,-0.14,-8.61,-1.13,-0.2,0.47,0.17
1000,-0.15,-7.38,-1.81,0.2,0.2,-0.03
1100,-0.53,-9.38,-1.99,-0.18,-0.36,0.07
1200,-0.54,-12.32,-1.32,-0.31,-0.3,-0.03
1300,-1,-13.58,-2.34,0.7,0.25,-0.25
1400,-0.19,-9.99,-1.92,-0.55,0.28,0.03
1500,0.16,-8.17,-1.26,-0.26,0.44,-0.08
1600,0.2,-7.93,-1.9,0.13,0.05,0.05
1700,0.44,-8.5,-2.31,0.1,-0.36,0.12
1800,-0.01,-10.87,-2.46,-0.36,-0.43,-0.21
1900,-0.66,-12.8,-2.37,0.1,0.05,-0.3
2000,-0.11,-10.33,-1.92,-0.31,-0.07,-0.21
2100,0.13,-8.46,-2.04,0.49,0.53,-0.17
2200,0.82,-8.12,-2.46,-0.21,0.27,0.54
2300,1.34,-7.65,-2.12,-0.83,-2.01,0.23
2400,0.33,-10.05,-2.24,0.27,0.18,-0.13
2500,-0.35,-11.65,-2.83,0.27,-0.38,-0.25
2600,-0.21,-10.89,-2.83,-0.35,-0.17,-0.06
2700,-0.38,-9.86,-2.58,-0.28,0.43,0.12
2800,-0.09,-9,-2.41,-0.03,0.19,0.26
2900,-0.22,-9.31,-2.94,0.21,0.48,-0.05
3000,0.04,-8.21,-2.88,-0.05,0.37,-0.12
3100,0.19,-9.25,-3.08,0.1,-0.07,-0.18
3200,0.06,-9.43,-3.23,-0.27,-0.37,-0.13
3300,0.41,-10.26,-3.17,-0.38,-0.6,-0.14
3400,0.18,-10.14,-3.41,-0.12,-0.61,-0.56
3500,0.67,-10.27,-3.91,0.08,-0.28,-0.04
3600,1.01,-11.11,-3.96,0.32,-0.12,0.06
3700,0.63,-10.52,-3.9,-0.12,-0.03,0.45
3800,0.29,-9.61,-3.11,0.07,0.03,-0.13
3900,-0.1,-9.41,-3.09,0.23,0.2,0.23
4000,-0.09,-10.4,-2.61,0.15,0.21,0.06
4100,0.04,-9.77,-2.31,0.27,0.32,0.13
4200,0.06,-9.32,-2.07,0.17,0.2,0.06
4300,-0.51,-9.81,-1.95,-0.02,-0.15,-0.19
4400,-0.6,-9.61,-1.91,0.08,-0.1,0.11
4500,-0.63,-11.09,-1.75,-0.36,-0.56,0.15
4600,-0.42,-11.07,-1.65,-0.17,-0.24,0.08
4700,-0.59,-11.91,-1.84,0.25,0.1,-0.05
4800,0.31,-9.7,-2.03,0,0.58,0.19
4900,0.18,-9.19,-1.71,0.04,0.31,-0.22
5000,-0.61,-9.68,-1.77,0.3,0.36,0.08
5100,-0.09,-9.82,-1.57,0.05,0.24,0.15
5200,-0.36,-9.24,-1.3,0.03,0.1,-0.1
5300,-0.28,-8.92,-0.99,0.13,0.23,0.03
5400,0.06,-9.75,-0.99,0.26,0.09,-0.24
5500,-0.63,-9.32,-0.84,0.16,0.12,-0.25
5600,0.47,-10.39,-0.85,-0.06,-0.25,-0.03
5700,-0.04,-10.87,-1.07,-0.19,-0.25,-0.13
5800,0.38,-11.74,-0.93,0.14,0.2,0.14
5900,0.12,-10.69,-1,-0.08,0.22,0.13
6000,0.04,-10.35,-1.05,0.13,0.26,0.01
6100,0.31,-9.43,-0.54,-0.16,0.09,0.15
6200,0.41,-8.99,-0.72,0.09,-0.01,-0.07
6300,0.29,-9.27,-0.41,0.08,-0.03,-0.01
6400,-0.06,-8.89,-0.2,0.05,-0.12,0.01
6500,0.27,-8.93,0.1,-0.05,-0.19,0.04
6600,-0.06,-9.52,0.24,0.08,0.08,0.06
6700,-0.15,-10.61,-0.01,-0.08,-0.17,0.07
6800,-0.1,-10.98,-0.03,-0.07,0.09,-0.16
6900,-0.04,-10.74,0.37,-0.15,0.19,0.04
7000,0.29,-9.84,-0.08,0.22,0.48,0.09
7100,0.36,-9.61,-0.3,0.04,0.05,-0.04
7200,-0.11,-9.24,0.11,0.15,-0.08,0.01
7300,0.18,-9.74,-0.06,0.27,0.02,-0.01
7400,-0.34,-9.34,0.21,-0.24,-0.13,-0.08
7500,-0.14,-8.77,0.41,-0.06,0.08,0.17
7600,0.25,-9.36,0.5,-0.07,0.09,0.22
7700,-0.36,-9.9,0.57,-0.15,-0.04,-0.1
7800,-0.13,-10.55,0.11,0.01,0.18,0.13
7900,-0.29,-10.52,0.23,-0.23,0.06,-0.19
8000,-0.31,-10.27,-0.17,-0.08,0.12,-0.12
8100,-0.93,-9.52,-0.24,0.07,0.01,0
8200,-0.31,-9.88,-0.53,-0.12,0.22,0.1
8300,0.16,-10.01,-0.34,-0.54,-0.31,-0.06
8400,0.28,-8.79,-0.29,-0.1,-0.26,0.08
8500,0.22,-9.45,-1.23,-0.08,-0.17,0.18
8600,0.11,-9.89,-0.95,-0.28,-0.35,-0.07
8700,-0.09,-9.81,-1.43,-0.01,-0.18,0.01
8800,0.17,-9.74,-1.47,-0.03,-0.3,0
8900,-0.44,-10.71,-1.63,-0.17,-0.19,-0.07
9000,-0.37,-11.97,-1.3,-0.21,-0.05,-0.07
9100,-0.33,-10.55,-1.15,-0.32,0.26,-0.13
9200,0.01,-9.74,-1.35,0.09,0.15,0.03
9300,0.17,-9.2,-1.53,0.19,-0.02,0.23
9400,0.13,-9.13,-1.74,-0.32,0.03,0.07
9500,0.12,-9.01,-1.82,-0.13,0.06,0.13
9600,0.11,-9.6,-2.06,-0.16,-0.19,0.09
9700,0.04,-9.27,-2.02,-0.25,-0.35,0.12
9800,-0.11,-9.42,-2.04,0.07,-0.21,-0.07
9900,-0.48,-9.11,-2.23,-0.06,-0.43,-0.19
10000,-0.34,-11.19,-1.92,-0.04,-0.42,0.03
10100,-0.3,-11,-2.05,0.03,0.01,0.07
10200,-0.34,-10.58,-2.02,-0.37,0.08,-0.03
10300,-0.67,-10.03,-2.02,-0.45,0.15,0.18
10400,-1.09,-9.79,-1.68,-0.08,2.2,0.16
10500,-0.76,-9.66,-2.36,0.21,0.91,0.42
10600,-0.99,-8.88,-3.25,-0.06,0.06,0.21
10700,-0.77,-7.49,-3.49,-0.27,-0.1,0.42
10800,-0.88,-9.1,-4.32,0.01,-0.36,-0.13
10900,-1.48,-10.27,-4.34,-1,-1.11,-0.51
11000,-1.32,-9.62,-3.13,-0.93,-1.34,0.04
11100,-2.01,-10.94,-3.12,0.53,-0.02,-0.34
11200,-2.25,-11.15,-3.92,0.91,0.92,0.21
11300,-1.31,-11.06,-3.45,0.11,1.03,0.75
11400,-2.03,-9.06,-2.34,0.6,1.91,0.21
11500,-1.64,-9.18,-2.9,0.5,0.87,0.31
11600,-1.94,-9.88,-3.11,-0.17,0.29,0.31
11700,-1.95,-8.49,-2.24,-0.05,-0.08,-0.16
11800,-1.88,-8.96,-2.72,0.36,-0.22,-0.18
11900,-1.77,-9.12,-2.36,-0.33,-0.86,-0.29
12000,-1.8,-10.02,-1.67,-0.15,-0.75,-0.2
12100,-2.24,-11.03,-2.61,-0.02,-0.64,-0.2
12200,-1.83,-11.28,-2.88,-0.98,-3.06,0.39
12300,-2.73,-9.77,-2.66,-1.38,-2.4,-0.1
12400,-2.43,-9.28,-2.06,-0.88,-2.45,0.29
12500,-2.1,-10.19,-2.44,-0.29,-1.65,-0.79
12600,-3.06,-8.91,-2.66,-0.67,-1.63,-0.73
12700,-2.24,-8.79,-2.15,-0.66,-1.69,-0.23
12800,-1.58,-9.71,-2.27,-0.2,-1.34,-0.57
12900,-1.25,-10.66,-2.13,-0.2,-1.35,-1.07
13000,-0.73,-11.76,-2.32,0.01,-0.94,-1.15
13100,-0.34,-9.84,-1.6,-0.54,-0.63,0.37
13200,0.17,-10.02,-2.19,0.88,0.91,0.54
13300,-0.23,-11.13,-2.49,0.02,-0.46,0.31
13400,-0.45,-9.84,-1.58,-0.42,-0.29,-0.57
13500,-0.84,-9.97,-1.32,0.03,-0.3,-0.05
13600,-0.75,-9.45,-1.83,0.39,0,-0.03
13700,-0.09,-8.3,-1.72,-0.21,0.01,-0.04
13800,-0.48,-8.69,-1.78,-0.22,-0.17,-0.42
13900,0.3,-9.84,-1.92,-0.12,0.04,-0.09
14000,0.08,-11.04,-1.87,0.01,0.03,0
14100,0.07,-10.89,-2.01,0.18,0.24,0.34
14200,-0.94,-10.84,-2.15,0.04,0.18,0.14
14300,-0.81,-9.83,-1.75,-0.3,0.06,0.6
14400,-0.99,-9.79,-1.61,0.01,0.02,0.34
14500,-1.44,-9.28,-2,0.13,0.19,0.22
14600,-1.51,-9.19,-2.19,-0.08,0.01,0.33
14700,-1.67,-9.17,-2.19,-0.15,0.2,0.24
14800,-1.73,-9.32,-2.07,-0.22,0.13,0.36
14900,-2.15,-8.36,-2.2,0.16,0.35,0.02
15000,-2.21,-8.95,-2.06,0.16,0.31,-0.15
15100,-2.56,-9.95,-1.92,-0.03,0.2,-0.16
15200,-2.38,-11.35,-1.71,0.3,0.46,0.05
15300,-3.06,-10.34,-2.09,0.54,0.76,0.2
15400,-3.03,-9.87,-2.18,0.08,0.16,0.54
15500,-3.25,-9.56,-1.98,0,0.31,0.29
15600,-2.75,-7.72,-1.8,-0.3,0.08,0.27
15700,-2.49,-7.59,-1.86,0.46,0.88,-0.3
15800,-1.17,-9.03,-1.82,0.12,0.68,-0.81
15900,-2.67,-10.02,-1.2,0.46,0.27,-0.49
16000,-0.88,-9.97,-1.46,0.14,0.73,-0.02
16100,-1.08,-11.2,-1.95,0.03,-0.18,-0.68
16200,-0.68,-11.38,-1.56,0.1,0.05,-0.17
16300,-0.68,-10.75,-1.68,0.09,1.31,0.19
16400,-1.27,-10.61,-1.39,0.5,1.41,0.41
16500,-1.36,-8.45,-1.75,0.43,2.58,0.77
16600,-2.05,-9.41,-1.53,0.73,1.53,0.17
16700,-2.54,-9.06,-1.87,-0.67,0.29,-0.27
16800,-2.16,-9.07,-0.47,0.35,0.72,-0.04
16900,-1.41,-9.87,-1.92,0.33,0.22,-0.21
17000,-1.89,-10.66,-0.74,-0.06,-1.06,-0.8
17100,-1.16,-10.69,-1.16,-0.19,-1.5,-0.43
17200,-1.2,-11.49,-0.52,-0.54,-0.87,-0.23
17300,0.37,-10.55,-1.32,0.47,-0.19,0.1
17400,0.69,-9.7,-1.57,-0.1,-0.55,-0.2
17500,0.74,-8.91,-0.8,-0.2,-0.5,0.35
17600,0.21,-8.2,-1.69,-0.06,-0.31,-0.27
17700,1.01,-9.3,-0.16,-0.35,-0.16,0
17800,0.68,-10.55,-0.64,0.42,-0.22,-0.19
17900,0.66,-10.68,-0.7,0.27,0.11,0.23
18000,0.92,-9.89,-0.54,0.05,0.21,-0.22
18100,1.12,-11.83,-0.58,0.03,0.35,0.09
18200,0.32,-10.16,-1.26,-0.33,0.07,0.06
18300,0.11,-8.78,-1.79,-0.17,0.45,0.11
18400,-0.23,-8.65,-1.46,-0.39,0.39,-0.23
18500,-0.17,-9.33,-1.25,0.24,0.5,-0.01
18600,0.04,-9.43,-1.19,0.18,0.53,-0.07
18700,0.26,-9.94,-0.47,-0.14,0.33,0.01
18800,0.63,-10.11,-1.01,0.21,0.22,0.08
18900,0.8,-10.21,-0.74,-0.03,0.1,-0.17
19000,-0.1,-9.75,-0.79,0.17,0.09,0.13
19100,0.63,-9.84,-0.74,0.23,-0.12,-0.04
19200,-0.19,-10.16,-0.34,-0.18,0.09,0.18
19300,0.39,-10.26,-0.54,0.17,0.13,-0.12
19400,0.22,-10.53,0.41,-0.2,0.19,-0.02
19500,0.1,-9.67,-0.03,-0.04,0.17,-0.12
19600,-0.65,-9.4,-0.57,-0.02,0.52,0.23
19700,0.15,-9.18,-0.21,0.01,0.1,0.5
19800,-0.5,-9.14,-0.56,0.09,-0.07,0.13
19900,-0.04,-9.02,-0.69,-0.17,0.07,0.29
20000,-0.31,-9.6,-1.19,0.15,0.15,-0.31
20100,-0.4,-8.96,-1.45,-0.34,-0.03,-0.21
20200,-0.31,-10.17,-0.54,-0.07,-0.04,-0.24
20300,-0.4,-11.2,-0.45,-0.22,-0.04,0.14
20400,-0.04,-10.2,-0.41,-0.21,-0.12,0.04
20500,-0.11,-9.86,-1.24,-0.2,-0.14,0.29
20600,-0.46,-9.93,-1.37,-0.32,-0.39,-0.05
20700,-0.77,-9.11,-1.45,-0.32,-0.36,0.14
20800,-0.17,-8.62,-1.29,0,-0.32,0.16
20900,-0.87,-9.14,-1.81,0.26,0.12,0.21
21000,0.27,-9.98,-0.86,0.17,0.26,0.02
21100,0.29,-10.15,-1.67,0.23,0.37,-0.1
21200,-0.42,-10.54,-0.71,0.1,0.26,-0.46
21300,-0.29,-11.54,-0.59,-0.4,0.1,0.26
21400,0.18,-9.89,-0.8,-0.2,0.07,0.04
21500,-0.35,-10.67,-1.64,-0.11,-0.24,0.04
21600,-0.85,-9.12,-1.78,-0.64,-0.36,0.23
21700,-0.61,-9.1,-2.15,0.29,-0.08,0.28
21800,-1.03,-8.99,-1.57,0.01,0.1,-0.05
21900,-0.91,-8.52,-1.48,0.44,0.37,-0.29
22000,-1.25,-9.31,-1.43,0.11,0.43,-0.31
22100,0.15,-10.59,-1.26,0.38,0.66,-0.1
22200,0,-10.05,-1.62,-0.01,0.22,-0.45
22300,0.27,-10.55,-0.91,-0.01,-0.05,-0.23
22400,-0.26,-11.48,-0.44,-0.56,-0.14,-0.13
22500,-0.11,-10.93,-0.46,0.21,0.46,0.35
22600,0.1,-9.58,-1.89,-0.21,0.17,0.17
22700,0.1,-9.75,-0.98,-0.16,0.06,0.27
22800,-0.62,-9.71,-2.02,0.42,0.06,-0.05
22900,-0.79,-8.73,-1.51,0.05,0.04,0.02
23000,-0.67,-9.89,-1.57,0,0,0.11
23100,0.03,-10.09,-1.24,0.01,0,-0.26
23200,-0.7,-9.87,-1.62,-0.19,-0.04,-0.4
23300,-0.14,-10.5,-1.04,-0.09,-0.07,-0.18
23400,-0.37,-11.63,-1.16,-0.05,0.04,0
23500,-0.45,-11.14,-1.03,-0.3,0.13,0.03
23600,-1.1,-9.26,-1.7,-0.23,0.14,0.05
23700,0.15,-8.79,-1.66,-0.25,-0.16,0.56
23800,-0.71,-10.02,-2.32,0.33,-0.33,0
23900,-0.58,-8.33,-2.29,0.02,-0.21,0.23
24000,-0.99,-8.92,-1.51,0.2,-0.33,-0.13
24100,-0.76,-9.83,-1.44,0.2,-0.44,-0.24
24200,-0.11,-9.43,-1.8,0.23,-0.2,-0.02
24300,-0.01,-10.12,-0.91,-0.22,-0.21,-0.21
24400,0.79,-11.03,-1.32,-0.17,-0.07,-0.19
24500,0.06,-10.97,-1.92,0,-0.02,0.27
24600,-0.13,-9.55,-1.22,-0.49,-0.25,0.14
24700,-0.28,-10.09,-1.99,-0.05,-0.27,0.1
24800,-0.42,-9.58,-0.99,-0.29,-0.69,-0.14
24900,-0.55,-9.54,-1.34,0.02,-0.64,0.01
25000,0.03,-9.72,-0.9,0.27,-0.49,0
25100,0.4,-9.12,-0.94,-0.05,-0.42,-0.12
25200,0.14,-8.89,-1.46,-0.15,-0.23,-0.14
25300,0.61,-9.39,-1.21,-0.13,-0.15,-0.07
25400,0.59,-9.96,-1.39,0.06,-0.23,-0.2
25500,0.75,-10.39,-1.23,-0.1,-0.19,-0.27
25600,0.78,-11.48,-1.45,-0.03,-0.22,0.06
25700,1.32,-12.01,-1.38,-0.37,-0.61,0.38
25800,-0.3,-9.74,-1.53,0.09,-0.45,0.14
25900,-0.67,-8.38,-1.99,0.28,-0.37,0.44
26000,-0.51,-8.37,-1.62,-0.29,-0.44,-0.06
26100,0.13,-10.2,-1.43,0.22,-0.13,0.21
26200,0.05,-9.38,-1.33,-0.01,0.04,-0.26
26300,0.08,-9.94,-0.65,0.15,0.3,-0.07
26400,0.6,-9.45,-1.28,-0.02,-0.01,-0.29
26500,-0.03,-10.92,-0.96,0.09,0.24,-0.15
26600,0.31,-11.32,-2.02,-0.07,0.15,0.31
26700,0.63,-9.86,-1.6,-0.08,-0.11,0.31
26800,-0.14,-10.42,-1.54,0.17,0.06,0.33
26900,-0.05,-9.85,-1.64,-0.2,-0.14,0.02
27000,-0.24,-8.68,-1.46,0.04,0.06,-0.04
27100,0.32,-9.71,-0.76,-0.11,-0.11,-0.18
27200,-0.16,-10.05,-0.97,0.31,0.14,-0.44
27300,0,-10.22,-0.68,-0.03,0.25,-0.09
27400,0.43,-9.85,-1.03,0.03,0.1,-0.25
27500,-0.18,-10.69,-1.32,0.07,0.28,-0.11
27600,0.47,-11.21,-0.78,-0.36,0.15,0.22
27700,0.23,-10.49,-1.6,0.1,0.4,0.23
27800,-1.11,-9.25,-1.37,-0.25,0.14,0.02
27900,-0.9,-9.28,-0.83,-0.08,0.34,0.41
28000,-0.84,-9.19,-1.4,0.11,0.45,0.01
28100,-0.03,-8.77,-0.76,-0.03,-0.04,-0.14
28200,-0.37,-9.53,-1.01,0.24,-0.08,-0.26
28300,0,-9.61,-0.59,-0.05,0.02,-0.07
28400,-0.15,-9.99,-1,0.09,-0.21,-0.59
28500,0.13,-10.44,-0.14,-0.01,-0.13,0.02
28600,0.67,-11.39,-0.6,-0.19,0.13,0.22
28700,0.18,-10.89,-0.8,0.13,0.25,-0.1
28800,0.32,-9.04,-0.7,-0.18,0.17,0.42
28900,-0.27,-9.23,-0.67,-0.18,-0.1,-0.08
29000,-0.29,-9.37,-0.81,0.11,0.1,0.01
29100,-0.27,-9.84,-1.32,-0.07,-0.19,-0.33
29200,0.21,-9.1,-0.98,-0.35,-0.16,0.05
29300,0.31,-8.74,-0.91,-0.03,-0.21,-0.07
29400,1.07,-9.83,-0.88,0.04,-0.33,-0.04
29500,0.25,-10.23,-0.91,-0.18,-0.04,-0.34
29600,0.79,-10.86,-1.07,-0.06,-0.02,0.15
29700,0.64,-11.33,-1.06,0.03,0.32,0.03
29800,0.9,-10.21,-0.78,-0.21,0.37,0.23
29900,-0.26,-8.99,-0.22,0.06,0.73,0.1
30000,-0.21,-9.78,-0.36,0.29,0.52,0.67
30100,-0.82,-10.18,-1.16,0.12,0.87,-0.14
30200,-0.34,-9.07,-1.45,-0.22,0,0.24
30300,-0.4,-9.08,-1.24,0.19,-0.07,-0.3
30400,-0.28,-9.85,-0.69,-0.04,-0.27,-0.38
30500,-0.94,-10.46,-0.98,0.09,0.03,-0.34
30600,-0.66,-9.95,-0.92,-0.34,0.12,-0.07
30700,-0.14,-11.19,-0.17,-0.29,0.23,0.25
30800,0.08,-10.83,-0.73,-0.31,0.15,0.02
30900,-0.66,-9.4,-1.05,-0.39,-0.01,0.42
31000,-0.66,-9.55,-1.57,-0.29,0.04,0.08
31100,-0.71,-9.25,-1.54,-0.03,0.16,0.09
31200,-0.7,-9.4,-1.79,-0.09,0,0.03
31300,-0.98,-9.21,-2.09,0.33,0.22,0.05
31400,-0.46,-9.68,-2.5,0.03,0.07,-0.27
31500,-0.27,-9.84,-2.09,0.15,0.11,-0.15
31600,-0.47,-10.05,-1.94,-0.09,-0.15,-0.41
31700,-1.04,-10.32,-1.64,-0.01,-0.04,-0.35
31800,0.03,-12.36,-1.26,-0.28,0.26,0.2
31900,-0.15,-10,-0.92,-0.16,0.03,0.13
32000,-1.11,-9.98,-1.68,-0.15,0.13,0.32
32100,-0.35,-10.06,-1.56,0.2,0.15,0.56
32200,-0.72,-8.85,-2.43,0,0.03,0.19
32300,-0.59,-7.94,-2.57,0.12,-0.05,-0.31
32400,-0.75,-10.58,-1.88,0.22,0.15,-0.24
32500,-0.13,-9.22,-2.43,-0.05,0.02,-0.17
32600,0.06,-9.6,-1.37,0,0.06,-0.19
32700,-0.77,-10.57,-1.49,-0.04,-0.09,-0.11
32800,-0.13,-12.1,-0.61,-0.4,-0.07,0.27
32900,-0.38,-11.21,-0.53,-0.05,0.19,0.27
33000,-0.41,-9.52,-2.11,0.37,0.3,0.32
33100,-0.65,-8.29,-1.44,-0.37,0.15,0.16
33200,-0.33,-8.98,-2.2,0.55,0.25,0
33300,-1.08,-8.41,-1.9,-0.08,-0.12,-0.18
33400,-0.26,-9.56,-2.21,0.34,0.01,-0.13
33500,-0.39,-9.92,-1.41,0.02,-0.21,-0.06
33600,-0.2,-11.14,-1.34,0.17,-0.11,0.08
33700,-0.52,-10.11,-1.11,-0.11,-0.15,-0.14
33800,0.26,-12.96,-0.98,-0.22,-0.21,0.61
33900,-0.96,-10.49,-1.05,-0.14,0,0.01
34000,-0.97,-9.72,-0.78,0.45,0.46,-0.01
34100,-1.23,-7.47,-2.61,0.02,0.32,0.17
34200,-0.47,-8.05,-1.07,-0.03,0.05,-0.09
34300,-1.4,-9.7,-1.61,0.13,0.04,-0.14
34400,-0.28,-7.67,-2.49,-0.19,-0.07,-0.24
34500,0.22,-10.3,-2.13,0.08,0.08,0.07
34600,0.06,-12.5,-1.01,-0.3,-0.22,-0.28
34700,-0.51,-11.43,-1.71,0.12,-0.04,0.28
34800,-0.59,-9.63,-1.51,-0.21,-0.09,0.26
34900,-0.77,-9.99,-1.46,0.18,-0.34,0.17
35000,-0.76,-9.36,-2.43,0.74,-0.69,-0.26
35100,-0.89,-8.09,-0.69,-0.19,-0.01,-0.11
35200,-0.04,-10.14,-1.02,-0.08,0.29,-0.73
35300,0.03,-9.9,-0.75,-0.75,-0.02,-0.11
35400,-0.21,-9.72,-0.65,-0.33,-0.09,-0.09
35500,0.62,-11.27,-2.34,0.05,-0.04,-0.21
35600,-0.03,-11.05,-1.45,-0.27,-0.07,-0.34
35700,0.36,-10.15,-3.12,-0.16,-0.17,0.25
35800,0.35,-12.07,-1.88,0.09,-0.07,0.3
35900,-0.14,-10.91,-2.52,-0.05,-0.17,0.2
36000,-0.86,-8.95,-2.92,-0.03,-0.42,0.4
36100,-1.02,-7.63,-3.17,-0.29,-0.87,0.29
36200,-0.78,-8.63,-1.92,-0.61,-1.13,-0.22
36300,-0.68,-10.05,-2.63,-0.53,-0.66,-0.57
36400,-0.06,-9.12,-3.15,-0.2,0,-0.06
36500,-0.47,-10.24,-1.98,-0.38,-0.25,-0.39
36600,-0.42,-10.84,-2.19,-0.26,-0.25,-0.53
36700,-0.11,-11.49,-2.83,-0.1,-0.37,-0.33
36800,0.58,-13.27,-2.58,0.17,-0.06,0.38
36900,-0.35,-10.09,-2.79,0.33,-0.02,0.25
37000,-0.7,-9.16,-3.75,0.18,-0.06,-0.09
37100,-1.51,-8.44,-2.81,-0.18,-0.18,-0.01
37200,-1.15,-8.6,-1.76,0.1,0.02,-0.06
37300,-0.6,-8.91,-1.4,-0.05,-0.03,0.1
37400,-0.3,-9.63,-0.85,0.24,-0.02,-0.02
37500,-0.56,-9.12,-1.43,-0.12,-0.38,-0.33
37600,0.9,-10.1,-1.66,0.4,0.06,-0.22
37700,0.1,-10.68,-0.7,-0.21,-0.31,-0.41
37800,0.21,-12.23,-1.52,0.34,0.06,-0.14
37900,0.23,-10.78,-1.74,-0.26,0.13,0.67
38000,0.26,-10.75,-2.18,0.22,0.07,0.48
38100,-1.45,-8.27,-2.09,-0.31,-0.27,0.24
38200,-0.7,-8.82,-1.07,0.07,0.14,-0.1
38300,-0.33,-9.12,-1.41,-0.2,-0.26,-0.03
38400,-0.11,-8.74,-0.87,0.12,-0.34,-0.42
38500,-0.07,-9.03,-0.99,-0.15,-0.48,-0.33
38600,0.48,-10.91,-0.75,0.18,0,-0.46
38700,0.43,-10.48,-1.35,0.2,0.15,0.16
38800,0.25,-11.21,-1.02,-0.31,0.43,0.02
38900,0.16,-10.71,-1.64,0.03,0.47,0.56
39000,-0.78,-9.26,-1.39,-0.46,0.15,-0.16
39100,-0.7,-8.26,-1.94,0.12,0.55,0.39
39200,-0.23,-8.73,-0.98,-0.23,0.04,-0.08
39300,0.23,-9.37,-1.36,-0.04,0.18,-0.23
39400,-0.01,-9.98,-1,0.12,0.35,-0.14
39500,-0.37,-11.41,-1.06,0.35,0.26,-0.16
39600,0.52,-10.39,-0.8,0.12,0.05,-0.05
39700,-0.13,-11.7,-0.73,-0.3,0.18,0.23
39800,-0.2,-10.49,-0.73,0.12,0.66,0.12
39900,-0.53,-9.99,-1.44,-0.27,0.09,0.28
40000,-0.67,-8.71,-2.02,-0.06,0.21,-0.07
40100,-0.6,-9.34,-0.75,0.09,0.02,0.05
40200,-1.14,-9.13,-1.01,0.02,0.09,-0.06
40300,-0.65,-8.71,-1.02,0.11,0.28,-0.27
40400,-0.47,-9.18,-0.64,-0.01,-0.04,-0.27
40500,0.04,-10.44,-0.55,0.27,-0.17,-0.23
40600,-0.48,-10.84,-0.72,0.22,-0.01,0.05
40700,0.13,-12.49,-0.2,-0.13,0.13,0.09
40800,-0.42,-10.16,-0.76,-0.21,0.18,0.37
40900,-0.45,-8.91,-1.99,-0.27,-0.02,0.15
41000,-0.69,-9.16,-1.42,-0.24,-0.18,-0.07
41100,-1.19,-9.47,-1.32,-0.2,-0.08,0.07
41200,-0.45,-9.25,-1.58,-0.3,0.05,-0.04
41300,-0.71,-9.11,-0.87,-0.17,-0.06,-0.16
41400,-0.06,-9.08,-1.41,0.04,-0.06,-0.06
41500,0.23,-10.5,-1.03,0.44,-0.01,0.09
41600,-0.28,-10.81,-1.4,0.02,-0.43,-0.42
41700,-1,-11.81,0.03,-0.06,-0.02,-0.1
41800,-0.12,-10.83,-0.85,-0.18,0.43,0.15
41900,-0.01,-9.15,-1.05,-0.11,0.25,0.32
42000,-0.08,-9.64,-1.3,-0.09,0.12,0.1
42100,-0.86,-9.31,-1.51,0.31,0.16,0.01
42200,-0.53,-8.55,-2.15,-0.14,-0.19,0.02
42300,-0.02,-10.06,-1.36,0.45,0,0.09
42400,-1.12,-9.55,-1.65,0.03,-0.14,-0.11
42500,-0.19,-10.29,-1.86,-0.1,0.04,-0.23
42600,-0.72,-9.96,-0.91,-0.25,0.08,0.09
42700,0.62,-12.71,-0.85,-0.28,-0.06,-0.26
42800,-0.26,-10.29,-0.47,-0.24,0.11,0.48
42900,0.25,-9.98,-1.75,-0.22,0.04,0.08
43000,-1.04,-9.3,-1.61,-0.16,0.01,0.12
43100,-1.29,-8.81,-1.94,0.05,0.07,0.07
43200,-0.48,-9.02,-2.05,0.05,0,0.35
43300,-0.23,-8.71,-2.12,-0.24,-0.16,-0.35
43400,-0.36,-9.12,-2.37,-0.05,0.09,-0.48
43500,0.08,-11.18,-1.39,-0.15,-0.11,-0.38
43600,-0.24,-12.16,-1.66,0.02,0.19,0.22
43700,-0.33,-10.41,-1.66,-0.24,-0.24,0.27
43800,-0.64,-10.17,-1.24,-0.08,-0.19,0.25
43900,-0.79,-9.51,-1.39,0.15,0.01,0.34
44000,-0.41,-9.41,-1.77,0.11,-0.03,0.27
44100,-1.26,-8.36,-1.64,-0.03,-0.13,0.08
44200,-1.01,-10.38,-1.86,0.28,0.3,-0.41
44300,-0.33,-10.27,-2.55,-0.29,-0.05,-0.23
44400,-0.43,-9.59,-2.61,-0.19,-0.05,-0.43
44500,-0.29,-10.04,-2.46,-0.05,0.36,0.13
44600,-0.29,-11.84,-1.87,0.12,0.06,-0.17
44700,0.43,-11,-1.73,-0.15,-0.18,0.46
44800,-0.27,-10.42,-2.04,0.29,0.17,-0.01
44900,-0.65,-9.03,-1.55,-0.05,0.06,0.11
45000,-0.45,-9.44,-1.39,0.21,0.43,0.09
45100,-1.07,-7.86,-2.36,0.05,0.41,-0.23
45200,-0.45,-9.98,-2.66,0,0.39,-0.26
45300,-0.14,-9.55,-1.64,0.07,0.27,-0.32
45400,0.34,-10.42,-2.74,0.18,0.25,-0.07
45500,0.14,-9.76,-1.62,-0.15,-0.03,-0.11
45600,0.59,-12.26,-1.38,-0.11,0.02,0.35
45700,-0.37,-11.22,-0.67,-0.32,0.04,0.3
45800,-0.33,-9.62,-0.87,0.37,0.35,0.38
45900,-0.91,-9.84,-1.45,0.36,0.56,0.27
46000,-0.65,-9.03,-2.42,0.12,0.26,-0.14
46100,-1.57,-8.62,-0.84,-0.11,0.34,0.14
46200,-0.9,-9.33,-1.1,0.03,0.31,0.07
46300,-1.26,-8.89,-1.62,-0.14,0.08,-0.57
46400,-0.12,-9.3,-2,-0.22,-0.09,-0.44
46500,-0.48,-10.36,-1.32,-0.29,-0.3,-0.4
46600,0.4,-12.66,-1.02,0.07,-0.1,0.06
46700,-0.15,-11.94,-0.8,-0.21,-0.08,0.46
46800,-0.21,-9.58,-2.13,-0.04,0.16,0.49
46900,-0.64,-9.05,-1.41,0.22,0.05,0.44
47000,-1.55,-8.75,-2.17,-0.25,-0.34,-0.34
47100,-0.81,-8.78,-1.45,0.18,0.01,0.13
47200,-0.87,-9.86,-1.06,-0.54,-0.16,-0.25
47300,-0.55,-9.26,-1.5,0.32,-0.2,-0.24
47400,-0.43,-9.23,-2.78,0.2,0,-0.23
47500,0.14,-9.06,-1.32,-0.21,-0.21,-0.49
47600,0.2,-10.04,-1.83,-0.06,-0.12,-0.2
47700,0.93,-11.23,-1.16,-0.27,-0.33,-0.27
47800,0.81,-11.7,-1.06,-0.06,-0.03,0.34
47900,0.66,-11.02,-2.8,0.07,0.06,0.22
48000,0.28,-9.01,-2.88,-0.18,-0.26,0.18
48100,0.26,-8.77,-2.44,0.17,-0.41,0.32
48200,0.02,-8.86,-2.07,-0.33,-0.59,0.03
48300,0.79,-9.22,-1.36,-0.07,-0.46,-0.13
48400,-0.24,-9.06,-2.56,0.28,-0.61,0.01
48500,0.55,-9.57,-1.83,-0.11,-0.47,-0.06
48600,0.78,-11.45,-1.36,0.24,-0.11,0
48700,0.36,-10.91,-2.74,-0.12,-0.22,-0.35
48800,-0.2,-12.27,-2.08,-0.05,-0.25,0.32
48900,0.01,-9.58,-1.64,-0.08,-0.42,0.42
49000,-0.74,-9.98,-2.25,0.43,-0.15,0.24
49100,-0.24,-8.83,-2.12,-0.04,-0.01,0.17
49200,-0.46,-8.6,-1.68,-0.09,-0.11,-0.06
49300,-0.75,-9.13,-1.7,-0.3,-0.3,-0.44
49400,0.08,-9.85,-1.21,-0.06,-0.04,0.01
49500,-0.27,-10.05,-1.76,-0.22,-0.19,-0.38
49600,0.34,-11.35,-1.91,0.01,0.05,0.03
49700,-0.06,-11.08,-2.6,0.02,-0.06,0.24
49800,-0.05,-9.86,-2.17,-0.06,-0.4,0.29
49900,-0.99,-10.01,-2.11,0.03,-0.15,0.01
50000,-0.44,-9.09,-1.63,-0.03,0.13,0.36
50100,-0.56,-8.68,-0.69,0,0.21,-0.1
50200,-0.96,-9.15,-1.58,-0.04,0.29,-0.42
50300,0.51,-9.73,-0.72,0.01,0.4,-0.05
50400,0.41,-9.83,-1.8,0.14,0.46,-0.17
50500,0.13,-10.84,-1.4,0.08,0.17,-0.28
50600,0.93,-10.74,-1.42,-0.14,0.22,-0.17
50700,0.28,-12.62,-1.15,-0.15,0.24,0.35
50800,0.08,-10.86,-1.65,-0.26,0.33,0.44
50900,-0.32,-9.32,-2.41,-0.19,0.38,-0.03
51000,-0.91,-7.89,-1.55,0.01,0.93,0.08
51100,-0.61,-9.02,-2.52,0.14,0.32,0.16
51200,0.06,-8.61,-1.09,0.16,0.18,0.29
51300,-0.39,-10.14,-1.47,0.46,0.25,-0.26
51400,-0.25,-9.49,-1.02,0.18,-0.13,-0.23
51500,-0.56,-10.53,-0.51,-0.02,-0.04,-0.11
51600,-0.14,-10.44,-0.21,0.3,0.12,-0.18
51700,0.17,-11.95,-0.66,0.12,0.11,-0.16
51800,-0.39,-11.72,-0.64,-0.28,0.33,-0.21
51900,-0.04,-10,-1.12,-0.42,-0.1,0.58
52000,-0.05,-8.72,-1.38,-0.21,-0.01,0.23
52100,-1.08,-9.1,-2.18,-0.22,-0.17,0.02
52200,-0.91,-9.76,-1.19,-0.15,-0.21,-0.18
52300,-0.89,-8.82,-1.8,0.08,0.18,-0.01
52400,0,-8.84,-1.9,0.38,0.43,-0.34
52500,-0.29,-10.12,-1.22,-0.06,0,0.12
52600,-0.38,-10.16,-0.92,0.06,-0.24,-0.44
52700,0.09,-10.37,-0.92,0.25,0.1,0.19
52800,-0.23,-11.52,-0.74,0,0.09,-0.3
52900,0.47,-11.05,-0.79,-0.2,0.32,0.3
53000,-0.07,-9.51,-0.18,-0.05,0.38,0.22
53100,-1.31,-9.62,-1.31,0.03,0.25,-0.02
53200,-0.91,-9.56,-2.03,0.03,0.3,0.22
53300,-0.31,-9.47,-1.83,-0.2,0.04,0.03
53400,-1.13,-9.17,-2.05,0.27,0.18,-0.13
53500,-0.96,-9.82,-1.55,0.03,0.17,0.13
53600,-0.88,-9.52,-1.75,-0.2,0.01,0.06
53700,-1.18,-9.54,-1.81,0.03,-0.01,0.01
53800,-0.65,-9.89,-1.22,0.16,0.2,0
53900,-0.51,-10.13,-1.73,0.13,0.35,-0.21
54000,-0.74,-9.26,-2.03,-0.02,0.18,-0.04
54100,-0.3,-10.24,-1.14,0.06,0.01,-0.26
54200,-0.08,-10.29,-1.44,0.01,-0.05,0.17
54300,-0.78,-11.63,-1.18,-0.12,0.18,-0.03
54400,-0.03,-9.69,-1.35,-0.19,-0.03,0.2
54500,-1,-9.9,-1.42,-0.2,-0.02,0.01
54600,-0.9,-9.95,-1.16,-0.2,0.24,0.14
54700,-0.72,-9.57,-1.67,-0.08,0.16,-0.29
54800,-0.6,-9.63,-1.41,-0.1,0.11,0.16
54900,-0.97,-9.48,-1.5,0.19,0.22,0.2
55000,-0.24,-9.8,-1.65,0.14,0.07,0.07
55100,-0.75,-9.65,-2.03,0.17,-0.06,-0.05
55200,-0.26,-9.74,-1.48,0.09,-0.2,-0.26
55300,-0.64,-9.76,-1.67,0.11,-0.08,-0.27
55400,-0.61,-9.77,-1.22,-0.06,-0.19,-0.15
55500,-0.04,-11.67,-1.24,-0.13,-0.1,-0.01
55600,-0.7,-11.05,-0.51,-0.3,-0.22,-0.04
55700,-0.32,-10.23,-0.87,-0.04,0.07,0.36
55800,-0.26,-8.69,-2.19,0.15,0.18,0.39
55900,-1.29,-9.85,-0.83,-0.35,-0.33,0.17
56000,-1.09,-10.06,-1.65,0.47,0.44,0.22
56100,-1.13,-8.26,-1.85,0.07,-0.07,-0.17
56200,-1.6,-9.84,-1.13,0.09,0.02,-0.06
56300,-0.63,-9.72,-1.65,0.09,-0.04,-0.16
56400,-0.95,-9.46,-1.35,-0.11,-0.3,-0.27
56500,-0.51,-11.35,-0.6,-0.15,-0.13,-0.23
56600,-0.92,-11.26,-0.47,-0.14,0,0.1
56700,-0.98,-9.8,-0.74,-0.3,-0.26,0.05
56800,-0.69,-10.13,-0.96,0.07,-0.21,-0.32
56900,-0.92,-9.82,-0.47,-0.13,-0.07,0.25
57000,-0.79,-8.62,-1.41,-0.09,-0.05,0.06
57100,-1.12,-9.19,-0.98,0.19,-0.06,-0.09
57200,-0.4,-9.82,-1.51,0.09,-0.03,-0.37
57300,-0.55,-9.33,-1.47,-0.22,-0.12,-0.05
57400,-0.66,-10.16,-1.61,-0.11,-0.16,-0.3
57500,-0.44,-10.05,-1.57,-0.24,-0.13,-0.26
57600,0.1,-10.76,-1.37,-0.15,-0.16,-0.07
57700,-0.24,-11.69,-1.34,-0.22,-0.14,0.07
57800,-0.38,-9.59,-1.49,-0.17,-0.03,0.17
57900,-0.67,-10.12,-0.8,0.16,0.04,0.35
58000,-0.67,-9.22,-2.03,0.59,0.19,0.26
58100,-1.16,-8.6,-1.55,-0.4,-0.34,-0.09
58200,-1.01,-9,-1.69,0.06,-0.16,0.04
58300,-0.59,-9.12,-1.7,0.04,-0.25,-0.17
58400,-1.15,-9.08,-1.98,-0.06,-0.1,-0.28
58500,-0.22,-9.55,-1.66,-0.66,-0.19,-0.04
58600,-0.17,-10.02,-1.88,0.03,0,-0.07
58700,0.19,-10.01,-1.29,-0.15,-0.14,-0.08
58800,-0.09,-9.46,-2.01,-0.08,-0.13,-0.14
58900,-0.63,-9.93,-2.03,-0.37,-0.12,-0.01
59000,0.48,-11.26,-2.07,-0.01,-0.07,0.03
59100,0.16,-10.99,-2.39,-0.12,-0.17,0.25
59200,-0.7,-9.07,-2.76,-0.05,-0.47,0.09
59300,-0.62,-8.78,-1.99,0.07,0.1,0.05
59400,0.18,-8.85,-1.92,0.13,0.12,0.13
59500,-0.62,-9.16,-2.14,-0.01,0.01,0.18
59600,0.04,-9.28,-1.77,-0.04,0.06,0.24
59700,-0.66,-9.34,-1.59,0.23,0.18,-0.09
59800,-0.58,-8.84,-1.63,-0.14,0.23,0.01
59900,-0.51,-9.84,-1.52,0.04,0.04,-0.31
60000,-0.03,-9.38,-2.29,-0.18,-0.13,-0.01
60100,0.33,-9.54,-2.25,-0.32,-0.32,-0.17
60200,0.38,-11.08,-1.93,-0.42,-0.49,-0.24
60300,0.6,-11.91,-2.5,0.26,0.07,0.11
60400,0.05,-9.79,-2.82,0.27,0.26,-0.02
60500,-0.44,-9.59,-2.22,-0.17,0.15,0.02
60600,0.33,-10.19,-1.89,0.46,0.36,0.38
60700,-0.07,-9.76,-2.46,0.25,0.12,-0.03
60800,-0.57,-9.15,-1.94,0.21,0.5,0.12
60900,-0.5,-9.49,-1.58,0.09,0.33,-0.09
61000,-0.25,-9.54,-0.86,-0.07,0.23,0.16
61100,0.06,-9.03,-1,0.2,0.41,-0.1
61200,-0.01,-9.3,-0.56,-0.11,0.03,-0.2
61300,0.24,-10,-0.74,0.12,-0.11,-0.31
61400,0.4,-11.17,-0.89,0,-0.03,-0.06
61500,0.44,-11.66,-1.03,0.08,0.07,-0.06
61600,0.37,-10.62,-1.34,-0.17,0.15,0.3
61700,-0.13,-9.15,-1.56,-0.15,0.43,0.11
61800,0.04,-9.43,-1.47,-0.19,0.34,0.33
61900,-0.49,-9.52,-1.24,0.07,0.38,-0.07
62000,-0.57,-9.43,-1.16,0.23,0.65,0.07
62100,-0.49,-9.93,-0.8,0.05,0.39,-0.01
62200,-0.5,-9.14,-0.83,0.2,0.39,-0.01
62300,-0.64,-9.29,-0.84,0.16,0.28,-0.09
62400,-0.62,-9.89,-0.28,0.06,0.08,-0.14
62500,-0.53,-10.17,-0.28,0.19,0.27,0.05
62600,-0.71,-11.17,-0.76,-0.12,0,-0.12
62700,0.27,-10.78,-0.83,-0.18,-0.01,0.1
62800,-0.45,-10.06,-1.14,-0.44,-0.33,0.17
62900,-0.95,-9.68,-1.16,-0.26,-0.04,0.01
63000,-1.07,-9.35,-1.53,-0.18,-0.13,-0.13
63100,-0.46,-9.28,-1.33,-0.06,0.06,0.2
63200,-0.77,-9.43,-1.02,-0.04,-0.03,-0.04
63300,-0.77,-9.68,-1.23,0.18,0.12,-0.11
63400,-0.79,-8.55,-1.6,0.01,0.01,-0.13
63500,-0.75,-9.49,-0.68,0.24,0.18,-0.14
63600,-0.57,-10.14,-1.07,0.11,-0.01,-0.15
63700,-0.06,-10.37,-0.21,0.1,-0.03,-0.09
63800,-0.16,-11.9,-0.66,-0.04,0.21,-0.06
63900,-0.24,-10.41,-0.61,-0.29,0.14,0.08
64000,0.3,-9.38,-1.65,-0.27,0.02,-0.02
64100,-0.46,-9.24,-1.24,-0.39,-0.43,0.09
64200,-0.96,-9.77,-2.03,-0.16,-0.76,0.09
64300,0.08,-9.56,-0.97,-0.09,-0.38,0.16
64400,-0.28,-8.91,-1.98,0.11,-0.04,0.02
64500,-0.38,-9.72,-1.04,0.09,0,0.07
64600,-0.2,-9.48,-0.7,0.2,-0.05,-0.02
64700,-0.15,-9.66,-0.79,0.22,-0.25,-0.07
64800,-0.31,-10.43,-0.25,0.06,-0.3,0.12
64900,-0.11,-10.03,-0.13,0.06,-0.11,-0.24
65000,-0.39,-10.62,-0.25,0,0.04,0
65100,-0.08,-11.38,0.03,-0.24,0.43,0.02
65200,-0.21,-9.32,-0.07,-0.12,0.52,0.08
65300,-0.54,-9.34,-0.8,-0.15,0.23,0.1
65400,-0.05,-10.11,-0.45,-0.01,0.38,0.07
65500,-0.41,-10.13,-0.91,-0.21,0.32,0.1
65600,-0.51,-10.12,-0.97,-0.24,0.22,0.04
65700,-0.86,-9.08,-0.54,-0.27,0.31,0.02
65800,-0.67,-9.3,-1.63,0.3,0.59,0.14
65900,-0.42,-8.82,-2.11,0.03,0.36,-0.05
66000,-0.38,-9.4,-1.06,0.22,0.24,-0.01
66100,-0.33,-10.45,-1.47,0.14,0.16,-0.34
66200,0.19,-10.97,-0.66,0,0.07,-0.13
66300,-0.11,-11.15,-0.24,-0.01,0.14,-0.03
66400,-0.44,-10.3,-0.44,-0.44,0.01,0.24
66500,-0.41,-10.5,-1,-0.14,0.18,0.06
66600,-0.23,-9.7,-1.46,-0.33,0.21,0.02
66700,-0.76,-9.25,-1.48,-0.16,0.17,-0.05
66800,-0.61,-9.27,-1.68,-0.09,0.51,-0.03
66900,-0.96,-9.28,-1.59,0.03,0.46,-0.06
67000,-0.33,-9.65,-1.8,0.13,0.4,0.09
67100,0.01,-9.11,-1.3,0.11,0.32,0.05
67200,0.17,-8.95,-1.93,0.3,0.26,-0.26
67300,0.03,-10.03,-0.9,0.05,0.07,-0.11
67400,-0.74,-10.48,-1.41,0.21,0.08,-0.13
67500,-0.13,-11,-0.6,-0.13,-0.11,-0.04
67600,-0.18,-11.07,-0.99,-0.22,-0.05,-0.17
67700,-0.07,-10.08,-0.74,-0.24,0.05,-0.08
67800,0.11,-9.56,-1.49,-0.31,0.06,-0.07
67900,-0.14,-9.39,-1.66,-0.33,0.05,0.32
68000,-0.36,-9.51,-1.78,0.07,0.08,0.11
68100,-0.29,-9.6,-2.09,0.09,-0.16,0.2
68200,0.25,-9.53,-2.02,0.24,-0.07,0
68300,-0.15,-9.42,-1.8,0.14,-0.06,0
68400,0.05,-10.14,-1.33,0.26,-0.08,-0.18
68500,0.02,-10.6,-0.74,-0.02,-0.12,0
68600,-0.11,-11.51,-0.91,0.01,-0.08,-0.15
68700,-0.13,-10.92,-0.37,-0.27,-0.08,0.41
68800,-0.97,-10.09,-1.3,-0.32,0.13,0.15
68900,-0.61,-9.72,-1.35,-0.2,0.14,0.33
69000,-0.46,-9.27,-1.15,0.01,0.13,0.12
69100,-0.09,-9.19,-1.19,0.07,-0.1,-0.01
69200,-1.26,-9.46,-1.32,0.03,-0.18,0.35
69300,-0.92,-10.12,-0.66,0.07,-0.28,-0.3
69400,-0.2,-8.42,-1.75,0.1,-0.29,-0.09
69500,-0.56,-9.74,-1.45,0.02,-0.22,-0.31
69600,-0.52,-10.11,-0.57,-0.08,-0.36,-0.15
69700,0.06,-10.66,-1.63,-0.1,-0.5,-0.27
69800,-0.07,-10.74,-1.23,0.02,-0.24,-0.09
69900,0.02,-11.52,-1.19,-0.11,-0.2,0.1
70000,-0.39,-10.35,-1.22,-0.12,0.13,0.51
70100,-0.73,-9.9,-1.51,-0.41,-0.1,-0.04
70200,-0.68,-9.3,-1.94,0.1,0.12,0.55
70300,-1.08,-8.51,-2.15,-0.25,-0.55,-0.09
70400,-1.02,-9.36,-2.06,-0.07,-0.37,0.13
70500,-1.22,-9.14,-1.98,-0.21,-0.64,-0.19
70600,-0.54,-9.28,-1.95,0.37,-0.37,-0.04
70700,-0.91,-9.43,-1.76,-0.26,-0.51,-0.33
70800,-0.26,-10.05,-2.01,0.14,-0.47,-0.33
70900,-0.16,-10.18,-1.86,-0.28,-0.77,-0.32
71000,0.31,-10.9,-2.26,-0.25,-0.6,-0.19
71100,0.26,-10.8,-2.38,-0.33,-0.37,-0.04
71200,0.19,-11.76,-2.04,0.13,0.05,0.29
71300,-0.18,-9.89,-2.56,0,0.03,0.34
71400,-0.8,-9.61,-1.88,0.06,-0.11,0.24
71500,-0.8,-9.08,-2.06,0.09,-0.31,0.27
71600,-0.67,-8.72,-1.76,-0.25,-0.77,-0.09
71700,-0.68,-8.59,-2.39,0.02,-0.84,-0.25
71800,-0.22,-9.6,-1.62,-0.45,-0.6,-0.21
71900,-0.59,-9.36,-2.51,-0.12,-0.22,-0.22
72000,0.35,-10.19,-1.97,0.39,-0.06,-0.41
72100,-0.04,-9.41,-2.65,-0.07,-0.23,-0.28
72200,0.62,-10.67,-2.62,-0.07,-0.16,-0.27
72300,0.55,-10.74,-2.97,-0.08,-0.21,-0.07
72400,0.85,-11.38,-2.72,-0.08,0.05,-0.02
72500,0.53,-11.14,-2.72,0.12,0.32,0.43
72600,0.32,-9.84,-2.75,0.18,0.37,0.43
72700,0.17,-10.01,-1.52,0.03,0.28,0.35
72800,-0.48,-9.66,-2.04,0.46,0.54,0.14
72900,-0.37,-9.26,-1.15,-0.01,0.65,-0.05
73000,-0.72,-9.46,-0.95,0.34,0.88,0.28
73100,-0.75,-9.2,-1.84,0.02,0.24,-0.25
73200,-0.79,-9.27,-1.09,-0.29,0.52,0.01
73300,0.05,-9.63,-2.25,-0.29,0.43,-0.28
73400,-0.36,-9.33,-1.81,0.06,0.31,-0.25
73500,0.48,-9.41,-2.07,-0.15,0.04,-0.27
73600,0.64,-10.38,-1.57,-0.16,-0.26,-0.27
73700,0.8,-9.68,-1.87,0,-0.43,-0.29
73800,1.27,-9.41,-2.16,-0.25,-0.53,-0.1
73900,1.46,-11.45,-2.25,0.07,-0.26,-0.01
74000,1.24,-10.77,-2.31,0.23,0.07,0.05
74100,0.72,-11.01,-1.56,-0.18,0.3,0.35
74200,0.88,-10.05,-2.26,0.25,0.57,0.4
74300,0.11,-9.44,-2.32,-0.02,0.13,0.15
74400,0.08,-9.39,-1.38,0.21,0.59,0.37
74500,0.01,-9.51,-1.55,0.09,0.45,0.19
74600,-0.55,-9.99,-0.93,0.09,0.41,0.06
74700,-0.64,-9.67,-1.21,0.12,0.59,0.15
74800,-0.24,-9.65,-1.16,-0.19,0.07,-0.14
74900,0.38,-9.4,-1.49,-0.32,-0.15,-0.17
75000,-0.75,-9.57,-1.01,-0.13,-0.32,-0.03
75100,0.23,-9.19,-1.02,0.14,-0.02,-0.33
75200,-0.71,-8.97,-0.85,-0.34,-0.2,-0.22
75300,0.49,-10.3,-1.35,0.06,-0.49,-0.45
75400,0.4,-9.77,-1.43,-0.26,-0.44,-0.23
75500,1.06,-10.47,-1.74,0.1,0.03,-0.02
75600,0.34,-11.68,-1.24,0.13,-0.03,-0.01
75700,0.46,-10.89,-1.27,-0.17,0.35,0.49
75800,0.13,-9.24,-2.05,-0.21,0.11,0.03
75900,-0.31,-9.98,-1.68,-0.28,-0.1,-0.11
76000,-0.17,-9.49,-1.84,-0.07,-0.24,0.29
76100,-0.31,-9.21,-1.94,0.08,-0.06,-0.08
76200,-0.34,-9.86,-1.75,0.02,0.25,0.14
76300,-0.47,-9.35,-1.69,0.22,0.88,0.07
76400,-0.31,-10.12,-1.51,0.06,-0.18,0
76500,-0.2,-8.79,-1.46,0.03,-0.43,-0.18
76600,-0.36,-9.13,-0.96,0.15,-0.26,-0.2
76700,0.25,-9.9,-0.77,0.07,-0.22,-0.21
76800,0.38,-9.99,-0.85,0.02,-0.11,-0.17
76900,0.79,-10.01,-0.98,-0.02,-0.13,-0.27
77000,0.62,-11.88,-0.45,-0.04,0.01,0.19
77100,0.59,-10.79,-1.24,-0.12,0.04,0.49
77200,0.55,-9.45,-1.8,-0.29,-0.19,0.09
77300,0.04,-9.37,-1.65,-0.25,-0.28,0.23
77400,-0.13,-9.44,-1.69,-0.04,-0.17,0.2
77500,-0.48,-9.76,-1.44,-0.01,-0.25,-0.05
77600,-0.37,-9.49,-1.37,-0.05,0.03,0.1
77700,-0.42,-8.71,-1.4,-0.16,0,-0.11
77800,-0.13,-8.73,-1.56,0.32,0.09,-0.12
77900,0,-9.59,-0.89,0.08,-0.03,-0.06
78000,0.47,-10.22,-0.85,0.39,-0.19,-0.1
78100,-0.08,-10.88,-0.3,0.05,-0.28,-0.2
78200,0.15,-10.77,-0.37,0.05,0.05,-0.02
78300,-0.19,-10.78,-0.57,-0.16,0.2,0.23
78400,0.4,-9.98,-1.21,-0.15,0.1,0.28
78500,-0.46,-9.78,-1.52,-0.41,-0.01,0.23
78600,0.4,-10.09,-1.27,-0.26,-0.07,0.15
78700,-0.62,-9.08,-1.4,0.08,-0.06,0.08
78800,-0.16,-9.14,-1.6,-0.17,-0.12,0.1
78900,-0.26,-9.26,-1.19,0.09,-0.03,-0.21
79000,-0.2,-9.42,-0.97,-0.05,-0.15,-0.01
79100,0.47,-9.95,-1.04,0.19,-0.12,-0.19
79200,0.22,-10.28,-0.81,0.18,-0.17,-0.2
79300,0.17,-10.44,-0.94,0.09,-0.14,-0.11
79400,0.24,-10.89,-0.42,0.07,-0.11,0
79500,0.56,-10.42,-0.81,0,0.14,-0.03
79600,0.69,-11.17,-0.63,0.01,0.22,0
79700,0.27,-9.57,-0.47,-0.38,0.38,0.02
79800,-0.03,-9.91,-0.93,0.25,0.57,0.29
79900,-0.08,-9.78,-1.56,-0.36,0.28,0.13
80000,-0.27,-9.89,-1.14,-0.19,0.36,0.1
80100,-0.35,-9.84,-1.43,-0.1,0.28,0.13
80200,-0.65,-9.29,-1.63,-0.05,0.08,-0.05
80300,-0.69,-9.2,-1.45,-0.1,0.4,0
80400,-0.2,-9.64,-1.4,0.37,0.97,0.03
80500,0,-8.98,-2.12,0.32,0.67,0.23
80600,0.07,-8.57,-1.03,0.06,0.36,-0.2
80700,-0.38,-10.23,-1.37,0.41,0.58,-0.07
80800,-0.31,-10.69,-0.67,-0.02,0.31,0.04
80900,-0.39,-9.9,-0.35,-0.06,0.26,-0.12
81000,-0.08,-10.25,-1.19,-0.37,-0.2,-0.18
81100,-0.81,-10.67,0.18,-0.32,-0.21,-0.07
81200,0.28,-10.62,-2.21,-0.13,-0.84,0.28
81300,-0.58,-10.35,-0.84,-0.9,-0.73,0.18
81400,-1.26,-9.57,-2.48,-0.18,-0.25,-0.01
81500,-1.31,-10.16,-2.32,-0.35,0.26,0.46
81600,-1.35,-9.38,-2.34,0.3,0.56,0.07
81700,-0.76,-9.79,-2.88,0.05,0.3,0.35
81800,-0.26,-8.67,-2.48,0.41,0.38,-0.11
81900,-0.15,-8.58,-2.65,0.03,0.19,-0.16
82000,-0.6,-9.51,-2.21,0.26,0.39,-0.18
82100,-0.59,-9.38,-2,0.07,0.1,-0.22
82200,-0.37,-9.39,-2.2,0.19,0.02,0.07
82300,-0.24,-9.25,-1.65,0.17,0.01,-0.15
82400,-0.45,-9.77,-1.09,-0.04,-0.26,-0.04
82500,-0.13,-10.89,-1.33,0.07,-0.16,-0.05
82600,0.1,-12.38,-1.28,-0.22,-0.22,0.12
82700,-0.85,-10.7,-0.74,-0.07,0.19,0.25
82800,0.49,-9.34,-1.92,0.05,0.36,0.05
82900,0.69,-9.2,-2.08,-0.27,-0.09,0.02
83000,0.68,-9.34,-1.48,-0.27,-0.1,-0.01
83100,0.23,-9.05,-1.96,0.07,-0.32,0.1
83200,-0.56,-8.99,-1.52,-0.21,-0.31,0.02
83300,0.63,-9.94,-2.1,0.16,-0.35,0.01
83400,0.27,-9.59,-2.19,0.06,-0.22,0.02
83500,0.68,-10.98,-1.65,0.15,-0.34,0.22
83600,0.62,-10.24,-1.99,0.1,-0.24,-0.08
83700,0.5,-9.69,-2.38,-0.24,-0.17,-0.14
83800,0.83,-9.99,-2.07,-0.07,-0.44,-0.16
83900,0.37,-11.12,-1.82,-0.22,-0.15,0.21
84000,0.69,-10.83,-2.01,-0.05,-0.04,0.24
84100,0.23,-9.6,-2.31,-0.21,-0.41,-0.03
84200,0.3,-9.6,-2.82,-0.25,-0.43,0.25
84300,-0.05,-9.23,-2.89,-0.09,-0.2,0.26
84400,-0.75,-9.21,-2.63,-0.02,-0.22,0.1
84500,-0.73,-9.09,-2.6,-0.15,-0.44,0
84600,-0.54,-9.34,-2.76,-0.15,-0.51,-0.09
84700,-0.84,-8.62,-2.77,-0.2,-0.63,-0.32
84800,-0.36,-9.62,-2.76,-0.21,-0.47,-0.04
84900,0.01,-9.63,-3.08,-0.16,-0.25,-0.28
85000,0.13,-9.99,-3,-0.05,-0.41,-0.36
85100,0.07,-10.61,-3.4,0.06,-0.25,-0.24
85200,0.38,-10.57,-3.2,-0.17,-0.48,-0.22
85300,0.1,-10.56,-3.54,-0.15,-0.29,-0.22
85400,-0.04,-10.23,-3.4,0.15,0.44,0.22
85500,0.14,-10.08,-3.25,0.5,0.66,0.44
85600,0.41,-10.37,-2.86,0.47,0.59,0.09
85700,-0.35,-9.77,-2.12,0.32,0,0.17
85800,-0.2,-9.39,-1.59,0.15,-0.47,0.23
85900,-0.51,-9.05,-1.45,0.48,-0.6,0
86000,-0.75,-8.58,-1.84,-0.11,-0.57,-0.31
86100,-0.44,-9.46,-0.89,0.21,-0.12,-0.45
86200,0.38,-9.57,-0.65,0.24,0.33,-0.21
86300,0.17,-9.47,-1.2,0.09,0.21,-0.35
86400,0.29,-9.23,-0.98,-0.35,0.12,-0.19
86500,1.02,-10.46,-1.08,-0.21,0.25,-0.02
86600,0.77,-9.59,-1.37,-0.18,-0.19,-0.07
86700,1.43,-9.9,-1.29,-0.13,0.2,0.08
86800,1.05,-10.58,-2.03,-0.05,-0.23,-0.14
86900,0.65,-11.11,-1.84,0.1,-0.05,0.12
87000,0.76,-10.33,-2.07,-0.28,0.15,0.79
87100,0.2,-9.16,-1.16,0.31,0.31,0.05
87200,-0.27,-9.52,-0.99,0.26,0.37,0.3
87300,-0.08,-9.31,-1.45,-0.01,0.16,0.17
87400,-0.57,-9.44,-1.32,0,0.37,-0.05
87500,-0.78,-9.36,-0.99,-0.23,0.29,0
87600,-0.5,-9.74,-1.43,0.26,1.15,0.11
87700,-0.8,-9.07,-1.35,-0.13,0.88,0.07
87800,-0.66,-9.11,-1.02,-0.18,0.37,-0.15
87900,-0.55,-9.35,-1.52,-0.24,-0.04,-0.2
88000,-0.03,-9.74,-1.42,-0.28,-0.44,-0.23
88100,0.06,-10.45,-1.74,-0.24,-0.6,-0.44
88200,0.19,-10.42,-1.98,-0.21,-0.46,-0.19
88300,-0.02,-11.15,-2.27,0.19,0.03,0.13
88400,0.6,-11.41,-1.91,-0.01,0.2,0.24
88500,-0.68,-9.86,-1.82,0.22,0.35,0.35
88600,-0.53,-9.29,-2.51,0,0.38,0.2
88700,-0.31,-8.91,-1.8,0.13,0.88,0.17
88800,-0.89,-9.21,-1.47,-0.01,0.96,0
88900,-0.57,-9.56,-1.26,0.17,0.88,0.01
89000,-0.86,-9.45,-1.68,0.1,0.12,-0.22
89100,-0.09,-9.21,-1.13,-0.03,0.29,0.04
89200,-0.55,-9.57,-1.62,0.11,-0.2,-0.25
89300,-0.45,-9.88,-0.84,-0.14,-0.11,0.18
89400,-0.65,-9.37,-1.07,0.11,-0.23,-0.27
89500,-0.5,-11.03,-0.93,0.09,-0.3,-0.29
89600,-0.01,-11.01,-0.6,0.16,0.02,0
89700,-0.23,-11.41,-0.95,-0.17,0.21,0.33
89800,-0.51,-9.97,-1.23,-0.18,0.3,0.3
89900,-0.93,-9.43,-1.53,-0.35,0.09,-0.11
90000,-0.35,-9.55,-1.46,-0.3,0.05,-0.15
90100,-0.57,-9.12,-1.55,-0.04,0.2,-0.22
90200,-0.65,-9.55,-1.51,0.27,0.68,0.25
90300,-0.47,-9.48,-1.13,0.23,0.43,-0.07
90400,-0.71,-9.62,-0.96,0.07,0.45,0.1
90500,-0.35,-9.8,-0.52,0.13,0.26,0.03
90600,-0.74,-8.95,-0.96,0.09,0.16,-0.01
90700,-0.47,-9.35,-0.54,0.05,0.12,0.3
90800,-0.67,-9.91,-0.61,0.27,-0.02,-0.17
90900,-0.56,-10.32,-0.14,0.22,0.03,0.19
91000,-0.41,-10.44,0.04,0.12,-0.04,0.07
91100,-0.66,-11.81,0.5,-0.48,0,-0.08
91200,0.25,-9.31,-0.62,-0.52,-0.19,0.21
91300,-0.06,-10.13,-0.5,-0.39,-0.26,-0.14
91400,-0.11,-9.61,-0.92,-0.09,-0.3,0.27
91500,-0.57,-8.96,-1.65,-0.41,-0.16,0.14
91600,-0.78,-9.11,-2.08,-0.13,-0.29,-0.07
91700,-0.85,-8.86,-2.15,-0.56,-0.56,-0.09
91800,-0.75,-9.52,-0.68,0.21,0.19,0.07
91900,-0.33,-9.68,-2.12,0.29,-0.13,-0.02
92000,-0.62,-9.03,-0.96,0.17,-0.24,-0.19
92100,-0.75,-10.45,-1.13,0.49,-0.15,-0.21
92200,-0.63,-10.71,-0.39,-0.11,-0.1,0.13
92300,-0.31,-10.61,-1,-0.11,-0.27,0.06
92400,-0.58,-11.02,-0.61,-0.27,0.12,0.07
92500,-0.37,-10.53,-0.93,-0.42,0.07,0.22
92600,-0.79,-9.56,-2.35,-0.23,0.01,-0.29
92700,-0.66,-8.03,-2.43,-0.48,-1.04,0.31
92800,-0.67,-9.62,-3.41,-0.86,-0.73,0.1
92900,-1.25,-8.74,-1.95,-0.09,-0.34,-0.18
93000,-0.84,-9.62,-3.51,0.22,0.18,-0.01
93100,-0.91,-9.9,-3.11,-0.02,-0.12,-0.27
93200,-0.42,-9.74,-3.11,-0.04,0.02,-0.03
93300,-0.36,-9.62,-2.38,0.09,0.12,-0.07
93400,-1.01,-9.09,-3.04,0.21,-0.02,0.06
93500,-0.51,-10.59,-1.8,0.17,-0.1,0.02
93600,-1.23,-10.8,-2.88,0.26,-0.14,0.04
93700,-0.31,-9.57,-1.97,-0.12,-0.05,0.01
93800,-1.11,-10.66,-2.08,-0.25,-0.03,-0.04
93900,-0.55,-10.4,-2.18,-0.63,0.78,0.03
94000,-0.15,-9.25,-2.9,-0.04,0.91,0.03
94100,-0.29,-9.26,-3.42,-0.33,0.5,-0.04
94200,-0.11,-9.63,-3.24,0.19,0.68,0.04
94300,0.21,-9.5,-3,-0.02,0.2,0.2
94400,-0.02,-9.19,-3.37,0.01,0.25,0.08
94500,0.44,-8.61,-2.98,-0.19,0.03,0.02
94600,-0.36,-8.9,-2.94,0.28,0.05,0.05
94700,-0.27,-10.24,-3.05,0.33,0.31,0.11
94800,-0.19,-9.88,-2.68,0.13,0.02,0.28
94900,-0.17,-10.21,-2.56,0.16,-0.12,0.28
95000,-0.17,-10.18,-1.95,-0.08,-0.08,0.06
95100,-0.93,-12.18,-1.75,-0.23,0.03,-0.1
95200,-0.8,-10.77,-1.62,-0.34,0.19,-0.11
95300,-0.78,-9.79,-2.97,-0.17,0.56,-0.13
95400,-0.65,-9.47,-2.64,-0.31,0.36,0.14
95500,0.02,-8.88,-2.82,-0.32,0.14,0.05
95600,-0.4,-9.01,-3.23,0.27,0.55,0.14
95700,0.25,-8.53,-3.11,0.15,0.27,0.09
95800,-0.68,-9.41,-3.01,0.06,0.39,0.15
95900,-0.08,-9.96,-2.74,0.09,0.08,0.08
96000,-0.44,-10.12,-2.61,0.08,-0.07,-0.06
96100,-0.38,-10.54,-2.89,0.05,-0.1,0.3
96200,-0.55,-9.27,-2.26,0.28,-0.07,-0.08
96300,-0.09,-9.19,-2.12,0.12,-0.35,-0.04
96400,-0.76,-11.79,-1.81,-0.23,-0.3,-0.06
96500,-0.81,-12.26,-2.55,-0.37,-0.04,0.1
96600,-0.73,-10.39,-1.87,-0.47,0.13,-0.31
96700,-0.07,-9.18,-2.49,-0.21,0.23,0.5
96800,-0.68,-8.72,-3.01,0.22,0.54,-0.05
96900,-0.5,-8.74,-3.02,0.03,0.26,0.27
97000,-0.13,-8.96,-2.61,0.07,0.11,-0.02
97100,-1.13,-8.7,-3.02,0,-0.15,0.02
97200,-0.01,-8.74,-2.84,0.02,-0.41,0.08
97300,-0.87,-8.95,-2.77,0.27,-0.12,-0.18
97400,-0.93,-9.3,-2.25,0.11,-0.41,-0.16
97500,-1,-10.42,-1.88,0.11,-0.6,-0.06
97600,-0.83,-11.29,-1.37,0.16,-0.4,-0.25
97700,-0.74,-10.82,-1.41,-0.01,-0.36,0.06
97800,-0.57,-11.06,-1.42,-0.05,-0.11,-0.03
97900,-0.54,-10.7,-1.65,-0.31,-0.06,0.06
98000,-1.23,-9.94,-1.95,-0.16,0.18,-0.2
98100,-1.16,-9.22,-2.02,-0.11,0.2,-0.14
98200,0.01,-9.95,-2.06,-0.05,0.08,0.26
98300,-0.94,-10.13,-2.24,-0.06,0.01,0.01
98400,-0.54,-9.28,-2.34,0.04,-0.48,0.18
98500,-1.18,-8.07,-2.6,-0.11,-0.59,-0.16
98600,-0.9,-8.3,-2.53,-0.13,-0.62,-0.08
98700,-1.29,-9.45,-2.2,-0.11,-0.87,-0.23
98800,-0.67,-9.37,-1.88,0,-0.52,-0.22
98900,-1.03,-9.44,-2.09,-0.13,-0.54,-0.21
99000,-0.91,-10.61,-1.25,-0.04,-0.22,-0.31
99100,0.21,-10.87,-2.32,0.29,0.03,-0.11
99200,-0.54,-11.04,-1.46,-0.29,-0.32,-0.32
99300,-0.04,-11.51,-1.62,-0.22,-0.43,-0.2
99400,-0.39,-11.79,-2.04,-0.17,-0.12,0.18
99500,-0.46,-9.95,-1.96,-0.16,0.37,0.27
99600,-0.9,-8.85,-1.86,-0.15,0.02,-0.15
99700,-0.67,-9.29,-1.46,0.33,-0.09,0.26
99800,-0.76,-9.78,-1.15,0.36,-0.32,0.18
99900,-1.17,-9.15,-0.53,0.46,-0.48,0.01
100000,-0.96,-9.3,-1,-0.09,-0.92,-0.03
100100,-0.62,-9.8,-0.51,-0.39,-0.95,-0.33
100200,-0.3,-9,-0.49,-0.1,-0.67,-0.21
100300,0.19,-9.41,-1.27,-0.28,-0.63,-0.29
100400,0.3,-9.29,-1.43,-0.48,-0.55,-0.18
100500,0.7,-10.18,-1.88,-0.23,-0.24,-0.23
100600,1.01,-10.87,-2.27,-0.15,-0.01,-0.23
100700,0.98,-10.37,-1.89,-0.2,0.06,-0.27
100800,0.74,-10.59,-2.43,-0.17,0,0.35
100900,0.83,-10.95,-2.68,0.03,0.08,0.13
101000,1.04,-10.94,-1.97,0.21,0.25,0.51
101100,0.17,-9.5,-1.35,0.55,0.24,0.1
101200,0.81,-9.19,-1.05,0.45,0.05,0.03
101300,0.03,-9.01,-0.55,0.44,0.13,-0.13
101400,0.06,-8.85,-0.43,0.02,-0.12,-0.22
101500,0.77,-8.74,0.12,-0.23,0.07,0.1
101600,0.27,-9.64,-1.22,-0.21,0.1,-0.19
101700,0.99,-9.69,-0.84,-0.32,0.19,0.03
101800,0.32,-9.91,-1.64,-0.32,-0.32,0
101900,0.83,-10.07,-1.79,-0.26,-0.32,0
102000,0.6,-9.65,-2.11,-0.16,-0.47,-0.24
102100,0.65,-10.72,-2.63,-0.5,-0.42,0.2
102200,0.51,-10.82,-2.79,-0.05,-0.44,-0.04
102300,0.28,-10.34,-3.05,0.36,-0.24,-0.11
102400,0.8,-9.23,-2.77,-0.44,-0.08,0.22
102500,-0.22,-10.85,-3.18,0.55,1.92,-0.72
102600,0.47,-10.31,-1.61,0.34,1.6,1.32
102700,0.53,-9.76,-1.89,0.39,0.25,0.11
102800,-1.58,-8.67,-2.12,0.17,0.95,-0.21
102900,-1.26,-7.52,-1.82,-0.06,0.96,0.55
103000,-0.4,-8.29,-1.71,-0.15,0.86,0.17
103100,-0.78,-8.55,-1.32,-0.25,0.11,-0.32
103200,-0.07,-8.77,-1.86,0.13,0.21,-0.18
103300,-0.01,-10.37,-1.71,-0.42,-0.86,-0.41
103400,0.44,-10.69,-1.85,-0.07,-0.44,-0.12
103500,0.32,-10.47,-2.59,-0.33,-0.66,-0.31
103600,0.56,-10.62,-2.5,-0.22,-0.16,0
103700,0.24,-10.68,-2.6,0.11,0.18,0.14
103800,0.25,-11.49,-1.93,0.37,0.08,0.27
103900,-0.39,-10.43,-2.07,0.14,0.34,0
104000,-0.61,-9.64,-1.82,0.01,0.52,0.48
104100,-0.44,-9.9,-2.21,0.16,0.55,0.29
104200,-1.02,-9.7,-1.77,-0.11,-0.02,0.18
104300,-0.81,-8.75,-1.8,0.17,0,-0.01
104400,-0.95,-8.03,-2.25,-0.43,-0.81,-0.18
104500,-0.1,-9.9,-1.56,-0.02,0.03,-0.09
104600,-0.23,-9.9,-2.8,-0.44,-0.09,-0.24
104700,-1.2,-8.38,-1.23,0.04,0.39,0.11
104800,0.22,-9.26,-2.9,0.22,0.32,0.07
104900,-0.01,-10.04,-1.1,-0.01,-0.26,-0.21
105000,-0.13,-9.6,-2.25,0.34,-0.14,-0.27
105100,0.78,-10.17,-1.55,-0.27,-0.35,-0.33
105200,0.16,-11.73,-1.61,0.04,-0.21,-0.21
105300,0.24,-11.7,-1.2,-0.01,0.17,0.26
105400,-0.21,-10.25,-1.79,-0.11,0.23,0.24
105500,-0.51,-9.58,-1.88,-0.34,0.22,0.13
105600,-0.33,-9.33,-2.1,0.08,0.62,0.52
105700,-0.61,-9.05,-2.33,0.31,1.06,0.06
105800,-0.43,-8.25,-1.72,0.18,1.22,0.19
105900,-0.17,-9.87,-1.11,0.39,0.7,0.02
106000,-0.48,-10.04,-1.12,0.12,0.17,-0.04
106100,-0.68,-9.2,-1.14,0.15,0.21,-0.01
106200,-0.16,-8.4,-1.19,0.2,0.08,-0.06
106300,-1.01,-10.2,-0.7,-0.16,-0.3,-0.04
106400,-0.1,-10.86,0.41,-0.01,-0.01,0.08
106500,-1.16,-10.17,-0.89,0.34,0.2,-0.13
106600,-0.49,-9.54,-0.54,-0.2,0.21,0.11
106700,-0.83,-13.59,0.01,-0.12,0.32,-0.01
106800,-0.48,-9.77,-1.08,-0.24,0.02,0.27
106900,-1.2,-9.95,-1.72,-0.23,0,0.13
107000,-0.94,-9.14,-1.42,-0.46,-0.03,0.13
107100,-0.92,-9.51,-1.55,-0.1,0.06,0.01
107200,-1.55,-9.13,-2.25,-0.08,0,0.05
107300,-1.41,-9.59,-2.32,-0.28,-0.01,0.05
107400,-1.43,-8.74,-2.44,-0.38,-0.28,-0.31
107500,-1.3,-8.62,-1.45,0.03,0.39,0.1
107600,-1.47,-10.35,-2.1,0.27,-0.24,-0.24
107700,-0.6,-9.44,-1.56,0.14,-0.37,-0.05
107800,-1.32,-10.18,-1.26,0.12,-0.32,-0.5
107900,-1.07,-10.73,-1.12,0.22,-0.11,-0.01
108000,-0.62,-11.73,-0.8,0,0.11,-0.13
108100,-0.93,-10.82,-1.51,-0.44,0.2,0.22
108200,-1.07,-9.18,-2.45,-0.3,0.1,0.08
108300,-1.57,-9.62,-3.04,-0.58,0.12,0.11
108400,-0.8,-8.28,-2.97,-0.66,0.11,0.21
108500,-0.82,-8.12,-3.91,-0.68,-0.94,0.47
108600,-1.94,-8.61,-3.76,0.39,0.33,-0.09
108700,-0.94,-8.94,-4.29,0.15,-0.1,0.14
108800,-0.85,-9.45,-2.61,-0.08,-0.52,-0.03
108900,-1.35,-9.69,-3.05,-0.02,-0.71,-0.35
109000,-1.44,-10.09,-1.58,0,-0.35,-0.27
109100,-1.39,-10.86,-2.61,0.5,0.08,-0.25
109200,-0.76,-10.35,-2.36,0.15,0.12,-0.16
109300,-0.67,-10.63,-2.39,0.04,-0.03,0.11
109400,-0.81,-11.21,-2.1,-0.38,0.08,-0.08
109500,-0.84,-11,-1.89,-0.25,0.9,0.11
109600,-0.89,-9.69,-2.76,-0.15,0.88,-0.11
109700,-0.43,-9.21,-2.94,-0.2,0.26,0.15
109800,-0.89,-9.04,-2.88,0.11,0.57,0.03
109900,-0.15,-9.77,-2.95,-0.02,0.51,0.35
110000,-0.37,-9.15,-2.92,0.12,0.39,0.13
110100,-0.64,-9.04,-2.77,0.22,0.3,0
110200,-0.45,-8.68,-3.04,0.21,0.26,0.05
110300,-0.37,-9.11,-2.75,0.01,-0.07,0.02
110400,-0.5,-9.79,-2.49,0.2,-0.17,-0.14
110500,-0.49,-10.17,-2.36,0.16,-0.16,-0.27
110600,-0.57,-9.26,-2.16,0.26,-0.11,0.01
110700,-0.45,-10.55,-1.73,0.12,-0.21,-0.1
110800,-0.41,-12.43,-1.22,-0.34,-0.09,0.24
110900,-0.16,-11.38,-1.23,-0.38,0.1,0.15
111000,-0.7,-10.02,-2.26,-0.36,0.02,0.26
111100,-0.83,-9.28,-2.26,-0.11,0.25,0.03
111200,-1.41,-9.48,-2.8,-0.01,0.42,0.15
111300,-1.24,-9.43,-2.71,0,0.41,0.11
111400,-1.48,-8.98,-2.89,0.14,0.3,-0.06
111500,-0.68,-8.68,-2.88,0.06,0.3,0.32
111600,-1.01,-8.59,-2.82,0.31,0.25,-0.15
111700,-0.89,-9.94,-2.63,0.16,0.25,-0.24
111800,-0.86,-9.68,-2.15,0.04,-0.2,-0.21
111900,-0.13,-10.06,-2.11,0.15,-0.48,-0.08
112000,-0.2,-9.71,-2.13,0.16,-0.46,-0.36
112100,0.33,-10.24,-1.64,0.02,-0.48,-0.25
112200,-0.02,-12.14,-1.6,-0.16,-0.39,0.09
112300,-0.27,-11.51,-1.92,-0.45,-0.3,0.37
112400,-0.57,-10.08,-1.65,-0.21,0.12,0.22
112500,-0.88,-9.65,-2.11,-0.05,0.06,-0.01
112600,-0.45,-9.66,-1.79,-0.18,-0.22,0.1
112700,-0.45,-9.33,-2.05,0.16,-0.1,0.1
112800,-0.86,-9.09,-2.99,-0.07,-0.06,0.35
112900,-0.35,-8.15,-1.54,0.16,0.07,0.01
113000,-1.64,-10.91,-1.62,0.53,0.18,-0.11
113100,0.09,-9.7,-1.94,0.24,-0.06,0.26
113200,-0.38,-8.52,-2.52,-0.38,0.04,-0.71
113300,-0.12,-10.35,-1.07,-0.46,-0.33,-0.24
113400,1.12,-9.07,-1.89,0.04,-0.65,-0.4
113500,-0.22,-10.1,-1.02,-0.36,0.17,0.3
113600,1.3,-11.95,-2.29,-0.01,0.03,-0.15
113700,-0.35,-11.17,-1.84,-0.08,0.07,0.43
113800,-0.5,-9.31,-1.73,0.09,0.06,0.23
113900,-0.91,-9.34,-1.27,-0.28,0.05,0.23
114000,-0.58,-9.47,-1.02,-0.03,0.19,0.25
114100,-0.49,-9.35,-1.34,-0.1,0.1,-0.03
114200,-1,-9.47,-1.75,0.33,0.17,0.35
114300,-0.19,-8.91,-2.84,0.02,0.14,-0.15
114400,-1.19,-9.19,-1.74,-0.29,-0.09,-0.23
114500,-0.19,-10.28,-2.57,-0.3,0.13,-0.44
114600,-0.76,-10.38,-2.66,-0.23,0.16,-0.42
114700,-0.12,-10.49,-3.27,-0.18,-0.22,0.06
114800,-0.33,-11.12,-2.53,-0.01,-0.61,-0.01
114900,0.07,-10.22,-2.87,0.16,0.03,0.11
115000,-1.31,-9.69,-2.61,-0.22,-0.34,0.31
115100,-1.19,-9.57,-2.27,-0.17,-0.51,0.1
115200,-1.28,-9.1,-2.24,-0.04,-0.06,-0.02
115300,-1.23,-8.79,-2.39,-0.09,0,0.28
115400,-1.33,-9.07,-2.77,-0.35,0.08,0.02
115500,-1.11,-8.53,-2.72,0.33,0.3,-0.07
115600,-0.92,-9.46,-3.12,0.02,0,-0.16
115700,-0.76,-9.52,-2.63,-0.18,-0.02,-0.13
115800,-0.52,-9.56,-3.07,-0.25,0.03,-0.24
115900,-0.65,-10.01,-3.22,-0.11,-0.04,-0.13
116000,-0.23,-9.99,-3.38,-0.24,-0.01,-0.06
116100,-0.46,-10.8,-3.73,-0.1,0,0.21
116200,-0.68,-10.86,-4.34,0.06,-0.16,0.03
116300,-0.39,-10.49,-4.36,0.12,-0.19,0.04
116400,-1.11,-9.53,-3.92,-0.13,-0.44,-0.04
116500,-0.52,-8.98,-2.6,-0.26,-0.51,0.03
116600,-0.69,-9.49,-1.86,0.16,-0.44,-0.17
116700,-0.6,-8.89,-2.18,0.23,-0.31,-0.39
116800,-0.8,-9.17,-1.35,-0.07,-0.37,-0.27
116900,-0.65,-8.8,-2.11,0.2,-0.12,-0.26
117000,-0.06,-10.44,-1.72,-0.05,-0.13,-0.1
117100,-0.27,-9.94,-2.3,-0.45,-0.23,-0.2
117200,0.02,-10.42,-2.2,0.28,0.25,-0.02
117300,-0.1,-11.13,-2.35,-0.14,-0.13,0.13
117400,-0.34,-10.28,-3.02,0.25,0.26,0.37
117500,-0.37,-10,-2.85,0.05,0.36,0.01
117600,0.16,-10.31,-2.61,0.26,0.7,0.1
117700,-0.07,-9.49,-2.97,0.27,0.81,-0.08
117800,0.28,-9.13,-2.37,0.16,0.3,0.43
117900,0.86,-8.74,-2.89,0.33,0.59,0.08
118000,0.69,-9.13,-2.56,0.18,0.03,0.41
118100,1.02,-9.11,-2.33,-0.36,0.12,-0.37
118200,0.62,-9.83,-2.24,-0.15,-0.13,0.22
118300,0.35,-10.04,-2.81,0.11,0.05,-0.02
118400,1.7,-10.27,-2.7,0.11,-0.03,0.02
118500,1.21,-10.72,-2.09,-0.06,-0.41,-0.45
118600,0.93,-11.03,-2.66,0.17,-0.01,0.01
118700,0.57,-11.06,-2.12,0.1,0.35,0.3
118800,0.66,-10.86,-1.62,0.35,0.62,0.33
118900,0.56,-9.43,-2.61,0.19,0.83,0.1
119000,0.82,-9.21,-2.53,0.19,0.67,0.03
119100,0.88,-9.5,-2.72,-0.47,-0.17,-0.16
119200,0.24,-10.02,-1.9,0.19,0.08,0.01
119300,0.57,-9.24,-1.32,-0.13,-0.03,-0.15
119400,0.21,-8,-1.42,0.22,0.07,-0.06
119500,0.63,-9.41,-1.38,0.14,-0.4,-0.15
119600,0.67,-10.77,-0.53,0.14,-0.34,-0.3
119700,0.74,-10.28,-1.46,-0.04,-0.3,-0.31
119800,0.75,-10.19,-0.71,-0.02,-0.17,-0.05
119900,0.51,-10.21,-1.17,-0.06,-0.04,-0.02
120000,0.2,-11.76,-1.01,-0.03,0.36,0.16
120100,0.83,-11.48,-1.11,0.26,0.52,0.17
120200,-0.11,-9.34,-1.95,-0.55,-0.17,0.09
120300,0.45,-9.13,-1.45,0.07,0.25,-0.2
120400,0.9,-9.42,-1.95,-0.03,0.24,0.13
120500,0.3,-9.18,-1.68,0.21,0.32,0.01
120600,0.7,-9.5,-0.87,0.1,0.28,-0.18
120700,0.44,-10,-1.19,-0.04,0.37,0.07
120800,1,-8.7,-0.72,0.13,0.17,0.07
